timestamp(ms),acceleration_x(g),acceleration_y(g),acceleration_z(g),roll(rad),pitch(rad),yaw(rad),angular_velocity_x(rad/sec),angular_velocity_y(rad/sec),angular_velocity_z(rad/sec)
1396948626717,0.0008,0.0038,-0.0054,-0.0217,0.0018,0.0000,-0.0010,-0.0010,-0.0014
1396948626816,0.0025,-0.0047,-0.0093,-0.0216,0.0019,-0.0001,-0.0022,-0.0022,0.0023
1396948626915,-0.0001,-0.0004,-0.0074,-0.0208,0.0014,-0.0003,0.0014,0.0014,-0.0026
1396948627015,0.0027,-0.0006,-0.0054,-0.0207,0.0012,-0.0004,-0.0010,-0.0010,-0.0001
1396949160862,-0.0007,0.0350,0.0069,0.1381,0.2162,-0.0150,0.0885,0.0885,0.0309
1396949160958,0.0028,0.0369,0.0361,0.1365,0.1988,-0.0117,-0.2385,-0.2385,0.0534
1396949161058,-0.0194,0.0515,0.1533,0.1981,0.2061,0.0004,0.6941,0.6941,0.2246
1396949161157,-0.0032,0.0996,-0.0070,0.2736,0.2129,-0.0135,-0.4708,-0.4708,0.3352
1396949161257,-0.0112,-0.0464,0.0001,0.2633,0.2137,-0.0078,-0.3293,-0.3293,-0.0757
1396949161356,-0.0320,-0.0328,-0.1204,-0.0245,0.2035,-0.0274,-0.3054,-0.3054,-0.0216
1396949161455,-0.0061,0.0217,0.1117,-0.0396,0.2502,0.0004,1.3475,1.3475,-0.0664
1396949161554,0.0895,0.0346,-0.0074,-0.0960,0.3650,-0.0630,0.3763,0.3763,-0.6646
1396949161654,0.0026,-0.0478,-0.0079,-0.1281,0.4037,-0.0893,0.3106,0.3106,-0.1777
1396949161753,0.0474,0.0389,-0.0050,-0.1363,0.3891,-1.2096,-0.3665,-0.3665,-0.0035
1396949161852,-0.0050,0.0151,0.0231,-0.1641,0.4004,-1.2428,0.5125,0.5125,-0.4422
1396949161951,-0.0134,-0.1058,-0.2014,-0.2728,0.4831,-1.2760,1.2593,1.2593,-0.4237
1396949162051,-0.8792,0.1119,-0.4539,-0.6853,0.8254,-1.3441,3.8262,3.8262,-4.9292
1396949162150,1.6276,1.0892,0.2310,-0.3661,1.4229,-2.1322,2.1384,2.1384,-4.3841
1396949162251,-6.0785,0.2455,-0.5650,-0.9304,0.8622,-1.4077,-8.1388,-8.1388,6.9568
1396949162349,4.5836,1.8936,2.0273,-0.5557,1.2971,-1.9008,5.8056,5.8056,-3.9327
1396949162448,-3.8897,0.7177,-2.8416,-0.7017,0.3868,-1.3662,-9.6480,-9.6480,3.5539
1396949162548,0.2091,-0.0161,0.5511,-0.4392,0.4111,-1.4308,-0.1592,-0.1592,-0.5926
1396949162647,-0.1267,0.0399,0.0318,-0.3950,0.3875,-1.4256,0.3401,0.3401,-0.0692
1396949162747,-0.0827,0.0404,-0.0593,-0.3996,0.3805,-1.4220,0.0953,0.0953,-0.1255
1396949162846,-0.0198,0.0255,0.0585,-0.3990,0.3863,-1.4153,0.0463,0.0463,0.2132
1396949162945,-0.0331,0.0059,-0.0440,-0.3879,0.3665,-1.4240,-0.2333,-0.2333,-0.0069
1396949163044,0.1580,0.0421,0.0442,-0.4207,0.3947,-1.4533,0.3182,0.3182,-0.3863
1396949163143,0.0393,0.0268,0.0652,-0.4285,0.3942,-1.4395,-0.3609,-0.3609,0.0676
1396949163242,0.0550,-0.0078,-0.0013,-0.4668,0.3773,-1.4631,-0.0859,-0.0859,-0.7636
1396949163342,0.2442,0.0364,0.0277,-0.8617,0.6076,-1.6851,1.5662,1.5662,-1.5463
1396949163441,-0.0830,-0.0354,0.0039,-0.8769,0.7123,-1.7186,0.4351,0.4351,-0.3811
1396949163541,-0.0716,0.0061,-0.1756,-0.8379,0.6931,-1.7348,-0.0152,-0.0152,-0.1793
1396949163640,-0.0138,0.0075,0.0175,-0.8570,0.7100,-1.7193,-0.1397,-0.1397,0.0945
1396949163739,-0.0673,0.0043,0.0141,-0.8644,0.6974,-1.7157,-0.0604,-0.0604,0.1386
1396949163838,-0.0043,-0.0080,-0.0369,-0.8653,0.6873,-1.7186,-0.0503,-0.0503,-0.0297
1396949163938,-0.0014,0.0066,0.0110,-0.8351,0.6756,-1.7441,-0.1591,-0.1591,0.0853
1396949164037,0.0605,0.0016,-0.0093,-0.8315,0.6738,-1.7541,-0.1333,-0.1333,0.0211
1396949164136,-0.0345,0.0557,-0.0014,-0.8234,0.6557,-1.7657,-0.1869,-0.1869,0.0427
1396949164236,-0.0063,0.0114,-0.0251,-0.8202,0.6505,-1.7679,0.1191,0.1191,-0.0040
1396949164335,0.0540,0.0073,-0.0277,-0.8245,0.6496,-1.7655,-0.2137,-0.2137,0.0666
1396949164435,-0.0233,0.0151,-0.0586,-0.8035,0.6409,-1.7755,0.0994,0.0994,-0.0726
1396949164535,0.0357,0.0181,0.0120,-0.7939,0.6252,-1.7693,-0.1698,-0.1698,0.6480
1396949164633,-2.0709,-0.3463,-0.9519,-0.6905,1.0184,-1.9055,4.6081,4.6081,-7.6945
1396949164732,0.2511,1.3466,0.0739,1.3382,1.2840,2.2378,-0.4168,-0.4168,0.4965
1396949164831,0.5553,2.2644,0.0688,-1.0897,0.8383,-1.5998,-1.9399,-1.9399,2.1054
1396949164931,-0.1544,0.9486,-0.9866,-0.9031,1.3960,-1.8120,-0.4591,-0.4591,2.7136
1396949165030,-2.9689,1.4438,0.9379,-0.8206,0.3916,-1.4468,-6.0599,-6.0599,0.0045
1396949165129,0.2223,0.1809,0.8775,-0.6747,0.5616,-1.4699,-1.0064,-1.0064,-0.2043
1396949165229,-0.0726,0.0354,0.0783,-0.7205,0.4932,-1.4891,-0.6477,-0.6477,-0.1466
1396949165328,-0.0717,0.0413,-0.1459,-0.7340,0.4896,-1.5064,-0.0633,-0.0633,-0.3137
1396949165427,0.0068,0.0277,-0.0400,-0.7269,0.5008,-1.5337,0.1781,0.1781,-0.2561
1396949165527,0.0292,-0.0126,-0.0297,-0.7217,0.4994,-1.5446,-0.0678,-0.0678,-0.0257
1396949165626,-0.0085,0.0187,-0.0162,-0.7126,0.4991,-1.5563,-0.0781,-0.0781,-0.0777
1396949165726,0.0235,0.0077,-0.0103,-0.7024,0.4923,-1.5624,0.0565,0.0565,0.0057
1396949165825,-0.0027,0.0089,-0.0533,-0.6919,0.4840,-1.5695,-0.0965,-0.0965,-0.0515
1396949165924,-0.0048,0.0062,0.0198,-0.6930,0.4817,-1.5685,-0.1342,-0.1342,-0.0183
1396949166023,0.0300,0.0196,-0.0208,-0.6903,0.4771,-1.5704,0.0249,0.0249,0.0630
1396949166123,-0.0354,0.0040,0.0109,-0.6835,0.4725,-1.5740,-0.0649,-0.0649,-0.0105
1396949166222,0.0132,0.0167,-0.0180,-0.6779,0.4695,-1.5770,0.0088,0.0088,-0.0009
1396949166322,-0.0452,-0.0091,-0.0262,-0.6707,0.4697,-1.5815,0.0986,0.0986,-0.1200
1396949166421,-1.7573,-0.2380,-1.0681,-0.8324,0.7025,-1.6096,3.3570,3.3570,-5.5475
1396949166520,0.1024,1.1049,0.1550,0.9179,1.5187,2.6119,2.6145,2.6145,-6.9416
1396949166620,4.0773,2.6705,-0.3816,-0.5685,1.3845,-2.0381,-2.8097,-2.8097,12.4302
1396949166719,-4.6272,-0.1228,-3.3573,-1.1377,0.8460,-1.5140,3.3626,3.3626,-8.6877
1396949166818,5.4170,2.0820,0.7747,-0.8144,1.4165,-1.8313,-1.3164,-1.3164,6.2239
1396949166917,-6.0636,0.4357,-1.8715,-0.8873,0.4200,-1.4738,-2.2139,-2.2139,-4.3319
1396949167017,0.6821,0.1588,0.7649,-0.7448,0.6608,-1.4671,-0.5644,-0.5644,0.1480
1396949167116,-0.2275,0.0342,0.1811,-0.7192,0.5748,-1.4260,-0.7711,-0.7711,0.2963
1396949167215,-0.1068,0.0175,-0.1784,-0.6861,0.5266,-1.4692,0.0660,0.0660,-0.1669
1396949167315,0.0445,-0.0192,0.0309,-0.6731,0.5472,-1.4701,-0.0609,-0.0609,-0.0172
1396949167414,0.0247,0.0306,0.0186,-0.6557,0.5488,-1.4825,-0.0800,-0.0800,0.0389
1396949167513,-0.0233,0.0110,-0.1398,-0.6377,0.5359,-1.4995,0.2788,0.2788,-0.2465
1396949167612,-0.0549,0.0153,0.0621,-0.6313,0.5489,-1.4837,-0.0432,-0.0432,-0.0142
1396949167712,-0.0172,0.0143,-0.0252,-0.6261,0.5418,-1.4898,-0.0946,-0.0946,-0.0403
1396949167811,-0.0035,0.0167,0.0201,-0.6208,0.5337,-1.4906,-0.1070,-0.1070,0.0459
1396949167911,0.0088,0.0191,0.0043,-0.6145,0.5267,-1.4911,-0.1168,-0.1168,0.0627
1396949168010,0.0150,0.0096,-0.0167,-0.5972,0.5096,-1.4979,-0.1187,-0.1187,0.0846
1396949168109,-0.0251,0.0052,-0.0295,-0.5857,0.4998,-1.4992,-0.0145,-0.0145,0.0347
1396949168208,-0.0266,0.0128,-0.0275,-0.5744,0.4881,-1.4958,0.0399,0.0399,-0.0109
1396949168308,-0.0165,0.0095,0.0304,-0.5734,0.4822,-1.4917,-0.0750,-0.0750,0.0548
1396949168407,-0.0150,0.0046,0.0259,-0.5705,0.4745,-1.4978,-0.1507,-0.1507,-0.0182
1396949168507,-0.8964,0.0129,-1.0550,-0.8417,0.6131,-1.4920,3.6799,3.6799,-4.7739
1396949168606,-0.3360,0.9507,0.0604,-0.2823,1.4937,-2.4843,1.5223,1.5223,-8.2078
1396949168705,4.6365,2.1824,-0.2092,-0.4052,1.4838,-2.3173,-1.3606,-1.3606,13.3481
1396949168805,-7.1986,-0.3824,-2.0300,-1.1585,0.8954,-1.5687,2.9297,2.9297,-9.0951
1396949168905,2.9217,1.7011,0.1367,-0.3606,1.4658,-2.3301,0.1690,0.1690,4.6713
1396949169003,-6.9395,0.5953,1.0609,-1.1118,0.5273,-1.3435,-4.3301,-4.3301,-3.8721
1396949169102,0.7363,0.2038,0.5053,-0.7864,0.7594,-1.4697,-1.1086,-1.1086,0.0333
1396949169202,-0.0370,0.0046,0.2667,-0.4710,0.5734,-1.4841,-1.6028,-1.6028,0.8670
1396949169301,-0.0682,0.0258,-0.1423,-0.3590,0.4887,-1.4921,0.3171,0.3171,-0.1077
1396949169400,0.0799,-0.0181,0.0505,-0.3369,0.5289,-1.4957,0.0087,0.0087,-0.1636
1396949169499,0.0038,0.0256,-0.0041,-0.3446,0.5325,-1.4860,0.0338,0.0338,-0.1298
1396949169599,-0.0033,0.0307,-0.0001,-0.3430,0.5165,-1.4910,0.0885,0.0885,-0.0628
1396949169698,0.0232,0.0088,0.0176,-0.3356,0.5145,-1.4965,-0.0523,-0.0523,0.0381
1396949169798,-0.0141,0.0252,0.0202,-0.3217,0.5048,-1.4876,-0.0590,-0.0590,0.1550
1396949169897,-0.0637,-0.0002,-0.0238,-0.2721,0.4781,-1.5023,0.3441,0.3441,-0.6862
1396949169996,-0.0018,0.0349,-0.1676,-0.2076,0.5553,-1.6628,0.3235,0.3235,-2.0486
1396949170096,-0.0084,-0.0452,-0.0173,-0.2362,0.6857,-1.8511,0.8074,0.8074,-1.3296
1396949170195,0.0644,0.0056,-0.0039,-0.1541,0.7590,-1.9544,0.4959,0.4959,-0.4327
1396949170294,0.0805,0.0316,0.0081,-0.1433,0.8107,-1.9982,0.7694,0.7694,-0.5285
1396949170394,-0.0674,0.0000,0.0105,-0.1318,0.8432,-2.0819,0.0038,0.0038,-0.5644
1396949170493,-1.0869,-0.2121,-0.8094,-0.1692,1.0948,-2.4668,4.4716,4.4716,-6.1828
1396949170593,0.1660,0.5888,-0.0593,1.1150,1.1509,2.1398,1.5020,1.5020,-3.8928
1396949170691,1.1232,0.8987,0.2284,0.9285,1.1535,2.4199,-3.5072,-3.5072,5.7607
1396949170791,0.7869,1.5413,0.0809,-0.4664,0.6383,-1.7953,-7.1744,-7.1744,9.3592
1396949170890,-1.1081,-0.0944,-1.2767,-0.4847,0.3927,-1.5770,0.8758,0.8758,0.2915
1396949170990,-0.1695,-0.1210,-0.2032,-0.4390,0.3357,-1.5849,0.3945,0.3945,-0.2119
1396949171088,-0.0475,0.0042,-0.0299,-0.4452,0.3517,-1.5662,0.0234,0.0234,-0.0547
1396949171188,0.0051,0.0150,-0.0299,-0.4506,0.3465,-1.5560,0.0640,0.0640,0.0959
1396949171287,0.0194,0.0057,-0.0034,-0.4435,0.3459,-1.5526,-0.0401,-0.0401,0.1457
1396949171387,0.0359,0.0140,-0.0416,-0.4398,0.3299,-1.5469,0.0847,0.0847,0.0816
1396949171486,-0.0292,-0.0026,0.0133,-0.4381,0.3315,-1.5374,-0.0325,-0.0325,0.0181
1396949171585,-0.0102,0.0099,0.0275,-0.4391,0.3249,-1.5350,-0.1501,-0.1501,-0.0245
1396949171684,0.0208,0.0103,-0.0081,-0.4363,0.3178,-1.5368,0.0886,0.0886,0.0471
1396949171784,0.0125,0.0114,-0.0090,-0.4315,0.3138,-1.5395,-0.0344,-0.0344,-0.0532
1396949171883,-0.0135,-0.0013,-0.0122,-0.4186,0.3014,-1.5455,-0.1548,-0.1548,-0.0661
1396949171983,-1.4799,-0.1271,-0.5943,-0.3867,0.3558,-1.6445,0.8649,0.8649,-4.1278
1396949172082,0.2019,0.8124,-0.0137,-0.0802,0.9626,-2.5148,4.4164,4.4164,-7.5411
1396949172181,0.4100,0.4589,0.2579,0.5485,1.0818,3.1254,-0.3996,-0.3996,0.3342
1396949172281,-0.1178,-0.0083,0.0495,0.4562,1.0636,-3.0341,-0.3469,-0.3469,0.0050
1396949172380,0.0542,0.0358,-0.0708,0.4130,1.0181,-3.0119,-0.3425,-0.3425,0.0056
1396949172480,-0.0363,-0.0171,-0.0069,0.3830,1.0072,-2.9829,-0.0426,-0.0426,0.0403
1396949172579,-0.0546,-0.0188,-0.0071,0.3674,1.0054,-2.9765,-0.1361,-0.1361,-0.0109
1396949172678,0.0019,0.0358,0.0123,0.3209,0.9897,-2.9327,-0.4173,-0.4173,0.5924
1396949172777,-0.0844,0.0674,0.1805,0.0150,0.9715,-2.5022,-0.7086,-0.7086,1.6942
1396949172876,-0.2920,0.3117,-0.0859,-0.0178,0.6667,-2.1153,-4.0593,-4.0593,2.4031
1396949172976,-0.0129,0.0361,0.0341,-0.2876,0.7181,-2.0921,1.7465,1.7465,0.4434
1396949173075,0.0101,0.0143,0.0299,-0.3849,0.7824,-2.0326,0.4989,0.4989,-0.1968
1396949173175,0.0971,0.0967,0.0382,-0.2362,0.7327,-2.0402,-2.6842,-2.6842,0.4984
1396949173274,-0.1920,-0.0525,-0.1094,-0.0724,0.5307,-1.8892,-0.2611,-0.2611,0.5259
1396949173373,-0.0588,0.0244,-0.2669,-0.1131,0.5117,-1.8995,0.9910,0.9910,-0.4962
1396949173472,0.0410,0.5848,-1.5594,-0.7098,0.9316,-1.7792,9.9741,9.9741,-2.9878
1396949173571,1.5036,0.6566,3.3320,-1.7976,1.1751,-0.9473,-12.5426,-12.5426,3.9829
1396949173671,-1.3873,1.0767,-3.4456,-0.7480,0.8016,-1.9739,11.2957,11.2957,-6.0428
1396949173770,1.0204,0.4520,1.9792,-0.8815,1.0469,-1.6302,-8.8782,-8.8782,2.9623
1396949173870,0.3557,0.2758,-0.4181,-0.5313,0.8130,-1.8699,3.9816,3.9816,-0.8267
1396949173969,0.0652,-0.0059,0.0538,-0.5121,0.8113,-1.8600,-0.4419,-0.4419,0.0509
1396949174068,0.0538,0.0362,-0.1363,-0.4653,0.7682,-1.8993,-0.2380,-0.2380,0.0437
1396949174168,-0.0687,0.0001,-0.0759,-0.4499,0.7518,-1.8922,0.1213,0.1213,0.0487
1396949174268,-0.0219,0.0250,0.0526,-0.4548,0.7589,-1.8839,-0.2069,-0.2069,-0.0703
1396949174367,-0.0214,0.0239,-0.0232,-0.4408,0.7371,-1.8939,-0.0881,-0.0881,0.0419
1396949174465,-0.0083,0.0091,-0.0615,-0.4202,0.7178,-1.8991,-0.0662,-0.0662,-0.0010
1396949174565,0.0153,0.0170,0.0029,-0.3972,0.7035,-1.9105,-0.3695,-0.3695,-0.0207
1396949174665,-0.0096,0.0213,0.0140,-0.3910,0.6914,-1.9145,-0.1969,-0.1969,0.0370
1396949174763,-0.0211,-0.0000,0.0092,-0.3914,0.6846,-1.9186,-0.0722,-0.0722,-0.0753
1396949174864,0.0200,0.0072,-0.0211,-0.3932,0.6860,-1.9243,0.0370,0.0370,-0.0123
1396949174962,0.0218,0.0100,0.0047,-0.3949,0.6933,-1.8093,0.0794,0.0794,-0.0297
1396949175061,0.0435,0.0050,-0.0097,-0.4052,0.6956,-1.7485,0.0036,0.0036,0.1407
1396949175161,0.0159,0.0170,-0.0192,-0.4213,0.7070,-1.7144,0.0651,0.0651,0.0843
1396949175260,0.0079,0.0295,-0.0721,-0.4156,0.7012,-1.7045,0.0567,0.0567,0.0391
1396949175359,-0.0156,0.0048,-0.0121,-0.4130,0.6932,-1.6967,0.0749,0.0749,0.0918
1396949175459,-0.0116,-0.0102,-0.0335,-0.4279,0.6983,-1.6743,0.2747,0.2747,0.1213
1396949175558,-0.0365,-0.0156,0.0368,-0.4350,0.7044,-1.6709,-0.0075,-0.0075,-0.0884
1396949175657,0.0087,0.0317,-0.0034,-0.4292,0.7062,-1.6778,-0.0336,-0.0336,-0.0004
1396949175757,0.0090,0.0186,-0.0198,-0.4243,0.7015,-1.6753,0.0811,0.0811,0.0165
1396949175856,-0.0142,0.0033,-0.0229,-0.4209,0.6974,-1.6744,0.0670,0.0670,0.0169
1396949175956,-0.0209,-0.0022,0.0237,-0.4214,0.6949,-1.6737,-0.0530,-0.0530,0.0054
1396949176055,-0.0030,0.0170,0.0119,-0.4209,0.6932,-1.6784,-0.0654,-0.0654,-0.0093
1396949176155,0.0024,0.0119,0.0110,-0.4235,0.6865,-1.6856,-0.0964,-0.0964,-0.0185
1396949176254,-0.0304,-0.0141,-0.0272,-0.4282,0.6843,-1.6903,-0.0219,-0.0219,-0.0489
1396949176353,0.0244,0.0073,-0.0170,-0.4274,0.6796,-1.6985,-0.0366,-0.0366,-0.0035
1396949176452,0.0353,0.0023,-0.0267,-0.4134,0.6748,-1.7093,-0.0940,-0.0940,0.0438
1396949176552,0.0080,0.0177,-0.0247,-0.3935,0.6616,-1.7133,-0.0336,-0.0336,0.0776
1396949176651,-0.0093,0.0094,-0.0041,-0.3941,0.6616,-1.7016,0.0904,0.0904,0.0761
1396949176750,-0.0237,-0.0088,0.0247,-0.3984,0.6575,-1.6983,-0.0358,-0.0358,0.0393
1396949176849,0.0012,-0.0095,-0.0310,-0.4037,0.6570,-1.6969,0.0915,0.0915,0.0065
1396949176949,0.0137,-0.0030,0.0151,-0.4040,0.6604,-1.6999,-0.0295,-0.0295,-0.0634
1396949177048,0.0237,0.0184,-0.0103,-0.3998,0.6637,-1.7041,0.0694,0.0694,0.0014
1396949177147,0.0039,0.0063,0.0007,-0.3976,0.6650,-1.7020,0.0538,0.0538,0.0278
1396949177247,-0.0191,-0.0148,-0.0027,-0.3989,0.6656,-1.6981,-0.0254,-0.0254,-0.0066
1396949177346,0.0177,0.0029,0.0070,-0.3946,0.6657,-1.7021,-0.0207,-0.0207,-0.0176
1396949177446,0.0083,0.0078,0.0121,-0.3905,0.6694,-1.7025,0.0082,0.0082,0.0016
1396949177545,0.0066,0.0019,-0.0081,-0.3882,0.6680,-1.7013,0.0032,0.0032,0.0002
1396949177644,0.0095,0.0088,-0.0307,-0.4053,0.6830,-1.6928,0.5639,0.5639,-0.0660
1396949177743,-0.0349,-0.0900,-0.0107,-0.4703,0.7824,-1.6620,1.0425,1.0425,-0.3257
1396949177843,0.0417,0.0399,0.1438,-0.4885,0.8408,-1.6617,-0.1656,-0.1656,-0.1988
1396949177942,0.0441,0.0830,0.0352,-0.4457,0.8156,-1.7025,-0.4569,-0.4569,-0.0256
1396949178041,0.0236,-0.0154,-0.0747,-0.4264,0.7941,-1.6980,-0.0495,-0.0495,0.1253
1396949178141,-0.0560,-0.0791,-0.0814,-0.4056,0.8025,-1.6952,0.3837,0.3837,-0.1749
1396949178240,-0.0332,0.0298,0.0090,-0.3894,0.8445,-1.7007,0.3906,0.3906,-0.1992
1396949178339,0.0044,0.1144,0.0062,-0.3916,0.8818,-1.6833,0.4969,0.4969,0.0929
1396949178438,-0.0134,0.2107,-0.8659,-0.7532,1.0740,-1.4641,6.2529,6.2529,-0.5867
1396949178538,-0.0381,0.8425,-0.3263,-2.9160,0.9906,0.3734,3.0294,3.0294,-1.4766
1396949178637,0.5062,2.2018,2.7283,-0.1802,0.5825,-1.8041,-14.8406,-14.8406,-0.2573
1396949178736,0.0397,1.4040,-1.6814,-1.5681,1.2618,-0.9146,11.7051,11.7051,-4.0237
1396949178836,1.1382,0.6655,4.2670,-0.2645,0.7491,-1.7717,-17.6739,-17.6739,0.9315
1396949178935,0.5519,0.9025,-0.3174,-0.3695,0.8187,-1.7362,0.4281,0.4281,0.7453
1396949179035,0.0214,-0.1042,0.4249,-0.3546,0.8088,-1.7579,-0.9556,-0.9556,-0.2724
1396949179134,-0.0531,0.0718,-0.0980,-0.3445,0.7845,-1.7746,-0.0563,-0.0563,0.1147
1396949179234,0.0141,0.0059,-0.0111,-0.3549,0.7858,-1.7674,-0.0121,-0.0121,-0.0750
1396949179332,-0.0108,0.0323,0.0129,-0.3529,0.7757,-1.7701,-0.1019,-0.1019,0.0597
1396949179432,-0.0265,0.0184,-0.0296,-0.3529,0.7550,-1.7657,-0.0390,-0.0390,0.0745
1396949179531,-0.0087,0.0072,-0.0313,-0.3430,0.7413,-1.7669,-0.1205,-0.1205,0.0498
1396949179630,-0.0179,0.0030,0.0172,-0.3380,0.7367,-1.7636,0.0421,0.0421,0.0473
1396949179729,-0.0181,0.0621,-0.1449,-0.3723,0.7686,-1.7335,1.2220,1.2220,0.0863
1396949179829,-0.0445,0.0461,-0.0846,-0.4540,0.8913,-1.6744,1.5714,1.5714,-0.4972
1396949179928,0.0094,0.0152,0.1178,-0.4068,1.0305,-1.7525,0.9132,0.9132,-1.7095
1396949180027,-0.0013,0.0423,0.0712,-0.2962,1.0995,-1.9396,0.2277,0.2277,-0.6653
1396949180127,0.0031,0.0136,-0.0065,-0.3097,1.1251,-1.9345,-0.1690,-0.1690,0.1698
1396949180226,-0.0006,0.0033,-0.1069,-0.3213,1.0979,-1.9132,0.2612,0.2612,0.0757
1396949180326,0.0019,0.0122,0.0220,-0.3301,1.1000,-1.8927,-0.0763,-0.0763,0.0961
1396949180425,-0.0297,0.0143,-0.0199,-0.3231,1.0775,-1.8986,-0.3370,-0.3370,-0.0431
1396949180524,-0.0049,-0.0049,0.0201,-0.3061,1.0559,-1.8932,-0.1172,-0.1172,0.1728
1396949180623,-0.0273,-0.0172,0.0433,-0.3139,1.0554,-1.8781,-0.1556,-0.1556,0.0425
1396949180723,0.0178,0.0080,0.0283,-0.3138,1.0634,-1.8784,-0.0206,-0.0206,-0.0402
1396949180822,0.0253,0.0211,-0.0596,-0.3208,1.0812,-1.8871,0.3618,0.3618,-0.1120
1396949180921,-0.1460,0.0901,-0.6532,-0.8119,1.3651,-1.6392,5.5618,5.5618,-1.9897
1396949181021,2.1419,0.8235,1.7994,2.9846,1.2557,0.6363,-7.8674,-7.8674,4.3175
1396949181120,-1.4462,0.0676,-3.9291,-0.3753,0.7639,-1.8768,7.7971,7.7971,-3.4320
1396949181220,1.0895,0.7256,1.2212,-1.7224,1.4376,-0.7005,-2.3491,-2.3491,1.1989
1396949181320,-1.0483,-0.4587,-2.4257,-0.4095,0.9076,-1.8399,4.7993,4.7993,-1.5328
1396949181418,0.0192,0.0615,-0.2217,-0.4050,0.9873,-1.7952,0.7419,0.7419,-0.0199
1396949181517,-0.0311,-0.0110,0.0690,-0.4302,0.9910,-1.7794,-0.0811,-0.0811,-0.0613
1396949181616,-0.0377,-0.0105,-0.0658,-0.4362,0.9905,-1.7788,0.0341,0.0341,0.0403
1396949181716,0.0515,0.0174,-0.0143,-0.4425,1.0014,-1.7750,0.1724,0.1724,-0.0019
1396949181815,-0.0242,0.0050,-0.0101,-0.4553,1.0033,-1.7726,-0.0170,-0.0170,-0.0690
1396949181915,-0.0013,0.0327,0.0425,-0.4403,0.9899,-1.7842,-0.3599,-0.3599,0.0408
1396949182014,-0.0133,0.0230,-0.0417,-0.4175,0.9611,-1.7906,-0.0598,-0.0598,0.0872
1396949182113,-0.1806,0.3500,-1.2230,-1.6117,1.3256,-0.8812,10.3040,10.3040,-2.6667
1396949182212,0.8678,0.7912,2.4199,-1.4441,1.2611,-0.8087,-13.6327,-13.6327,1.4009
1396949182312,-0.8643,0.3960,-3.2643,-0.4614,0.8172,-1.7546,9.8440,9.8440,-4.7712
1396949182411,0.7016,0.6685,1.0562,-1.2363,1.3353,-1.1094,-4.4508,-4.4508,1.2419
1396949182511,-0.1230,0.0565,-0.3361,-0.4455,0.9016,-1.7443,2.1331,2.1331,-0.4216
1396949182610,-0.0518,0.0279,-0.2017,-0.4354,0.9271,-1.7169,-0.6898,-0.6898,0.1711
1396949182709,0.0306,-0.0044,-0.0162,-0.4393,0.9245,-1.6979,-0.5431,-0.5431,0.1929
1396949182808,-0.0602,0.0108,-0.1248,-0.3968,0.8676,-1.7083,-0.4113,-0.4113,0.2515
1396949182908,0.0258,0.0431,0.0642,-0.3848,0.8774,-1.6858,0.0434,0.0434,0.0175
1396949183008,0.0128,0.0365,0.0016,-0.3697,0.8527,-1.6862,-0.3676,-0.3676,0.2261
1396949183106,-0.1430,-0.0223,-0.5810,-0.3403,0.7645,-1.6596,-0.3543,-0.3543,0.9604
1396949183206,-0.1609,0.1045,0.1143,-0.3976,1.0655,-1.6896,1.8691,1.8691,-1.2505
1396949183305,-0.0506,0.1461,0.1563,-0.2420,1.3283,-2.0540,1.9586,1.9586,-2.0419
1396949183404,0.2821,0.0673,-0.7653,0.0563,1.3683,-2.4294,0.4643,0.4643,0.0255
1396949183504,-0.3530,0.1117,0.2600,2.7469,1.4180,1.0190,4.3633,4.3633,-1.1048
1396949183604,-0.1874,0.2336,0.0029,2.7262,1.0563,0.9468,3.6371,3.6371,-1.7444
1396949183702,0.0847,0.9858,2.4452,2.6589,0.7904,0.9572,-1.8751,-1.8751,0.9736
1396949183802,1.0413,2.0244,-3.4757,-0.0398,0.8126,-1.9926,-18.3321,-18.3321,2.7971
1396949183901,-0.2904,-0.0516,-0.3926,-0.1430,0.6003,-1.8025,1.6344,1.6344,1.7336
1396949184001,-0.1324,0.0502,0.3069,-0.1679,0.7269,-1.7417,-0.2107,-0.2107,-0.2481
1396949184100,0.0723,0.0707,-0.0855,-0.1461,0.6809,-1.7689,-0.0342,-0.0342,0.1867
1396949184200,-0.0112,0.0160,0.0765,-0.1651,0.6843,-1.7550,0.1455,0.1455,-0.0742
1396949184298,0.0741,0.0387,-0.0051,-0.1684,0.6661,-1.7658,-0.1351,-0.1351,-0.0678
1396949184398,0.0237,0.0452,-0.0181,-0.1594,0.6427,-1.7799,0.1072,0.1072,-0.0284
1396949184497,0.0426,0.0301,-0.0233,-0.1525,0.6325,-1.7885,-0.0312,-0.0312,-0.0161
1396949184596,0.0363,0.0338,-0.0024,-0.1508,0.6276,-1.7930,-0.0530,-0.0530,0.0390
1396949184696,-0.0065,0.0404,-0.0032,-0.1502,0.6142,-1.7943,-0.0415,-0.0415,0.0563
1396949184795,-0.0015,0.0236,-0.0041,-0.1497,0.6054,-1.7965,-0.0263,-0.0263,-0.0088
1396949184894,-0.0327,0.2169,-0.7916,-0.3522,0.7180,-1.8064,6.1030,6.1030,-1.8485
1396949184993,0.5548,1.4567,-0.2923,-2.8971,1.1229,0.3646,6.9406,6.9406,-2.0414
1396949185093,0.3422,0.3121,0.6744,-2.6586,1.1603,0.2350,-2.6102,-2.6102,1.0333
1396949185193,-0.1385,0.0205,-0.1056,-1.6379,1.2819,-0.6773,-3.1739,-3.1739,1.0474
1396949185291,-0.0511,-0.0072,-0.2729,-1.4149,1.2471,-0.8466,-0.2713,-0.2713,0.2475
1396949185391,-0.0016,-0.0016,-0.0135,-1.4625,1.2466,-0.8016,-0.1240,-0.1240,-0.0975
1396949185490,-0.0038,0.0169,-0.0777,-1.4507,1.2454,-0.8109,0.1204,0.1204,0.1382
1396949185589,0.0370,0.0059,-0.0015,-1.4968,1.2383,-0.7672,-0.0617,-0.0617,-0.0713
1396949185689,0.0616,0.0035,-0.0550,-1.5120,1.2407,-0.7519,0.1011,0.1011,-0.0007
1396949185789,0.0510,0.0046,0.0114,-1.5232,1.2404,-0.7435,-0.0436,-0.0436,0.0555
1396949185887,-0.0288,0.0059,-0.0948,-1.5579,1.2455,-0.7160,0.0835,0.0835,-0.0912
1396949185987,-0.0914,-0.0118,0.0589,-1.4100,1.2593,-0.8437,-0.2840,-0.2840,-0.2129
1396949186086,-0.0366,-0.0027,0.0520,-1.2073,1.2741,-1.0211,-0.7102,-0.7102,-0.2306
1396949186185,-0.0678,0.0268,-0.0021,-1.0254,1.2749,-1.2025,-0.3388,-0.3388,-0.4725
1396949186285,0.0184,0.0282,0.0856,-0.8100,1.2710,-1.4030,-0.8383,-0.8383,-0.3147
1396949186384,0.0158,0.0457,-0.0225,-0.5329,1.2299,-1.6772,-0.9954,-0.9954,-0.7385
1396949186483,0.0437,-0.0178,-0.0306,-0.3154,1.1700,-1.9019,-0.8400,-0.8400,-0.1911
1396949186583,-0.0589,0.0275,0.0039,-0.2096,1.1283,-1.9535,-0.1238,-0.1238,0.0230
1396949186682,-0.0064,-0.0069,-0.1141,-0.2360,1.1182,-1.8917,-0.0010,-0.0010,0.4062
1396949186781,-0.1227,-0.0443,-0.0793,-0.2028,1.1147,-1.8674,0.3461,0.3461,-0.3200
1396949186881,-0.1567,-0.0415,-0.0799,0.0155,1.1958,-2.1039,0.6841,0.6841,-1.6503
1396949186980,0.1215,0.2169,0.2361,0.3035,1.1358,-2.4859,-1.1187,-1.1187,-1.1861
1396949187080,2.5949,0.3638,0.1457,-0.4923,0.9773,-1.5805,-2.5194,-2.5194,7.6123
1396949187179,-1.0795,-0.0308,-0.9087,0.1479,1.1561,-2.2429,1.3131,1.3131,-3.3300
1396949187278,1.7619,0.7038,0.6945,-0.2606,0.7951,-1.6354,-3.1245,-3.1245,4.2229
1396949187377,-0.1034,-0.2323,-0.3645,-0.2262,0.8106,-1.6369,-0.1024,-0.1024,-0.2958
1396949187477,0.1457,0.0860,0.0237,-0.1939,0.7751,-1.6767,-0.2756,-0.2756,0.1829
1396949187576,-0.0296,-0.0032,-0.1295,-0.1937,0.7303,-1.6639,-0.3970,-0.3970,0.1369
1396949187675,0.0470,0.0247,0.0137,-0.1640,0.7267,-1.6760,0.1972,0.1972,-0.1266
1396949187774,0.0104,0.0266,-0.0226,-0.1457,0.7239,-1.6815,-0.0266,-0.0266,0.0341
1396949187874,0.0420,0.0302,-0.0089,-0.1357,0.7116,-1.6754,0.0392,0.0392,0.0325
1396949187973,0.0496,0.0242,0.0259,-0.1324,0.7099,-1.6755,-0.0480,-0.0480,0.0572
1396949188072,0.0298,0.0186,-0.0431,-0.1417,0.7011,-1.6635,0.0500,0.0500,0.0982
1396949188172,-0.0435,0.0102,0.0092,-0.1496,0.6977,-1.6569,-0.0481,-0.0481,-0.0244
1396949188271,-0.0156,0.0255,0.0003,-0.1547,0.6932,-1.6570,-0.0255,-0.0255,-0.0056
1396949188370,0.0034,0.0057,-0.0105,-0.1555,0.6851,-1.6529,0.0069,0.0069,0.0650
1396949188470,-0.0090,-0.0052,-0.0283,-0.1624,0.6793,-1.6419,-0.0538,-0.0538,0.0707
1396949188569,-0.4665,-0.1043,-0.4625,-0.1324,0.7429,-1.6886,1.9049,1.9049,-1.5784
1396949188668,0.1052,0.2052,0.2308,0.1658,0.9668,-2.0832,1.0990,1.0990,-2.9729
1396949188769,2.7287,0.8296,0.3002,-0.1731,0.8767,-1.7187,-1.4144,-1.4144,10.1514
1396949188867,-2.1642,-0.4839,-1.4588,-0.1200,0.7834,-1.5878,2.7982,2.7982,-4.9528
1396949188966,2.4603,0.6232,0.9968,-0.0786,0.7261,-1.7009,-3.3132,-3.3132,6.9997
1396949189066,-1.0592,-0.3142,-0.8896,-0.2065,0.6414,-1.4183,1.3344,1.3344,-0.3472
1396949189165,0.3250,0.1015,0.0094,-0.1510,0.6530,-1.5077,-0.2086,-0.2086,0.0509
1396949189265,-0.0846,-0.0201,-0.0399,-0.1873,0.6437,-1.4714,0.1014,0.1014,0.0944
1396949189364,-0.0026,0.0243,-0.0223,-0.1917,0.6397,-1.4683,-0.0200,-0.0200,0.0205
1396949189463,-0.0187,0.0097,0.0018,-0.1885,0.6367,-1.4712,-0.0837,-0.0837,0.2134
1396949189562,0.0082,0.0079,-0.0328,-0.1918,0.6254,-1.4667,-0.0137,-0.0137,0.0148
1396949189662,0.0325,0.0220,0.0163,-0.1833,0.6256,-1.4681,-0.0033,-0.0033,0.0767
1396949189761,0.0012,0.0119,-0.0010,-0.1824,0.6255,-1.4650,0.0057,0.0057,0.0282
1396949189860,0.0048,0.0154,0.0126,-0.1779,0.6218,-1.4659,-0.0118,-0.0118,-0.0108
1396949189959,0.0067,-0.0216,-0.0084,-0.1741,0.6148,-1.4692,-0.1600,-0.1600,0.0203
1396949190059,-0.0768,-0.0336,0.1407,-0.1141,0.5722,-1.4711,-1.0879,-1.0879,-0.0678
1396949190158,0.0737,0.0533,-0.5060,0.3100,0.2435,-1.5078,-2.3037,-2.3037,-1.2225
1396949190257,0.2559,0.1058,-0.2235,0.2316,0.2817,-1.5349,0.8419,0.8419,0.2893
1396949190357,0.1506,-0.0019,0.1828,0.1955,0.2905,-1.5009,-0.1531,-0.1531,0.4651
1396949190456,0.0322,0.0570,-0.0517,0.1470,0.3153,-1.4763,0.6074,0.6074,0.4275
1396949190556,0.0828,0.0762,0.1061,0.0815,0.3633,-1.4303,0.2893,0.2893,0.5474
1396949190655,0.0304,0.0763,0.0206,0.0422,0.3768,-1.3667,-1.4762,-1.4762,0.5501
1396949190754,0.5406,0.5043,0.2143,0.8062,-0.2815,-1.1257,2.3574,2.3574,0.5041
1396949190853,-0.1855,-0.0041,0.7515,0.6540,0.0180,-1.2265,0.2488,0.2488,-0.1420
1396949190953,0.5475,0.3708,-0.0655,0.2096,0.2095,-1.3106,3.6536,3.6536,0.7239
1396949191052,0.2448,0.2940,-0.0286,-0.1506,0.5870,-1.2458,3.9167,3.9167,-0.2118
1396949191151,-0.4478,0.1529,0.0506,-0.0876,0.8951,-1.4945,1.5863,1.5863,-3.9990
1396949191252,1.9456,0.3742,0.5555,-0.1406,0.7812,-1.4702,-3.8838,-3.8838,8.0577
1396949191350,-3.7724,0.0721,-2.4266,-0.1508,0.6361,-1.3366,4.3012,4.3012,-5.3287
1396949191450,1.3861,0.5898,0.8162,-0.1370,0.6852,-1.4840,-6.0702,-6.0702,8.5250
1396949191549,-3.7524,0.6434,-3.7981,-0.1594,0.4174,-1.0975,3.7215,3.7215,-1.2263
1396949191648,-0.3919,0.1157,0.3878,-0.0141,0.5402,-1.2971,-0.8416,-0.8416,-2.1275
1396949191747,0.2651,0.1472,0.0753,0.0315,0.4045,-1.3648,-0.9406,-0.9406,-0.1914
1396949191847,-0.1048,0.0494,-0.3347,0.0475,0.4462,-1.4490,1.1714,1.1714,-1.1040
1396949191946,0.2366,0.0688,0.1624,0.0853,0.5040,-1.5589,-0.0102,-0.0102,-0.5115
1396949192045,-0.1534,0.0347,-0.0644,0.0655,0.4794,-1.5450,-0.2725,-0.2725,-0.2090
1396949192145,-0.0084,0.0189,-0.0100,0.0694,0.4601,-1.5628,-0.2430,-0.2430,-0.1147
1396949192244,-0.0054,0.0163,-0.0632,0.0696,0.4395,-1.5692,-0.0487,-0.0487,-0.0945
1396949192344,0.0160,0.0126,0.0125,0.0822,0.4253,-1.5820,-0.0819,-0.0819,-0.0808
1396949192442,0.0271,0.0389,0.0082,0.0760,0.4147,-1.5946,0.0060,0.0060,-0.0689
1396949192542,-0.0094,-0.0029,0.0389,0.0744,0.4007,-1.5972,-0.2583,-0.2583,-0.0176
1396949192641,0.0190,0.0148,-0.0472,0.0653,0.3844,-1.6041,-0.0272,-0.0272,-0.0433
1396949192741,0.0113,0.0212,-0.0095,0.0610,0.3819,-1.6109,0.0759,0.0759,-0.0749
1396949192839,-0.0135,0.0271,-0.0452,0.0625,0.3748,-1.6137,0.0499,0.0499,-0.0766
1396949192939,-0.0075,0.0143,-0.0055,0.0627,0.3712,-1.6109,-0.0973,-0.0973,0.0501
1396949193038,-0.0236,0.0054,-0.0072,0.0615,0.3656,-1.6090,0.0359,0.0359,-0.0163
1396949193138,0.0181,0.0095,-0.0068,0.0623,0.3633,-1.6172,0.0506,0.0506,-0.0545
1396949193237,-0.0061,0.0206,-0.0185,0.0518,0.3708,-1.6169,0.2065,0.2065,0.1038
1396949193336,0.0651,0.0242,-0.2238,-0.0050,0.4237,-1.6157,1.5471,1.5471,-0.0158
1396949193436,0.1505,0.0276,0.6796,-0.0977,0.5663,-1.5771,-0.1048,-0.1048,0.3166
1396949193535,0.7193,0.6029,-1.1672,0.5256,0.0072,-1.4430,-8.2937,-8.2937,0.0000
1396949193634,0.0781,0.3801,0.3172,-0.4111,0.5035,-1.3091,9.3357,9.3357,-0.8268
1396949193735,0.7176,0.6137,0.7327,-0.1825,0.5345,-1.3329,-9.9509,-9.9509,-0.7564
1396949193833,0.3936,0.3456,0.3308,-0.5486,0.6482,-1.2655,6.3929,6.3929,-1.6189
1396949193933,0.2886,0.3851,-0.0760,-0.0447,0.4607,-1.2871,-7.2358,-7.2358,-0.3320
1396949194032,0.1988,0.1213,0.6237,-0.2775,0.5361,-1.2297,1.4688,1.4688,0.3504
1396949194131,0.0038,-0.0174,-0.2129,-0.1336,0.4342,-1.2553,-0.4570,-0.4570,-0.2955
1396949194230,0.1117,0.0171,-0.1671,-0.1396,0.4263,-1.2843,0.0158,0.0158,-0.1433
1396949194329,-0.0035,-0.0154,0.0274,-0.1436,0.4409,-1.2695,0.1340,0.1340,0.0679
1396949194429,-0.0168,0.0291,0.0103,-0.1565,0.4469,-1.2710,0.0484,0.0484,-0.0832
1396949194528,-0.0079,0.0170,-0.0264,-0.1643,0.4357,-1.2820,0.2441,0.2441,-0.0398
1396949194627,0.0436,0.0011,-0.0016,-0.1733,0.4406,-1.2796,0.0208,0.0208,0.0092
1396949194727,0.0055,0.0066,0.0028,-0.1649,0.4338,-1.2832,-0.0478,-0.0478,-0.0717
1396949194826,-0.0018,0.0002,-0.0207,-0.1556,0.4247,-1.2861,-0.0317,-0.0317,0.0625
1396949194925,0.0066,0.0003,-0.0429,-0.1532,0.4167,-1.2835,-0.1514,-0.1514,0.0264
1396949195025,0.0203,0.0025,-0.0157,-0.1501,0.4160,-1.2845,0.0280,0.0280,0.0058
1396949195124,0.0169,0.0053,0.0116,-0.1466,0.4129,-1.2827,-0.0519,-0.0519,0.0378
1396949195223,-0.0158,0.0035,-0.0222,-0.1442,0.4075,-1.2820,-0.0250,-0.0250,0.0190
1396949195323,0.0035,0.0075,-0.0010,-0.1408,0.4018,-1.2819,-0.0522,-0.0522,0.0088
1396949195422,-0.0051,0.0007,-0.0104,-0.1397,0.3985,-1.2808,-0.0094,-0.0094,-0.0015
1396949195521,-0.0162,0.0009,-0.0200,-0.1381,0.3986,-1.2825,0.0477,0.0477,-0.0489
1396949195621,-0.0047,-0.0185,-0.0122,-0.1310,0.3983,-1.2876,0.0227,0.0227,-0.0605
1396949195720,0.0011,0.0106,0.0120,-0.1268,0.4053,-1.2961,0.0086,0.0086,-0.1248
1396949195820,0.0448,0.0264,0.0500,-0.1232,0.4063,-1.3014,-0.0692,-0.0692,-0.0093
1396949195919,0.0083,0.0097,0.0026,-0.1221,0.4002,-1.3013,-0.0729,-0.0729,-0.0094
1396949196018,0.0094,-0.0091,-0.0199,-0.1206,0.3954,-1.3030,-0.0198,-0.0198,0.0373
1396949196118,-0.0057,-0.0050,0.0037,-0.1190,0.3935,-1.3055,-0.0768,-0.0768,-0.0312
1396949196217,-0.0081,0.0057,-0.0382,-0.1152,0.3959,-1.3157,0.1438,0.1438,-0.4181
1396949196316,0.3410,0.1697,-1.0345,-0.1995,0.6907,-1.1457,4.4042,4.4042,2.1457
1396949196415,0.1044,0.1915,0.3488,-0.3808,0.8434,-0.7765,1.3094,1.3094,1.4561
1396949196515,-0.4737,0.1826,0.3087,-0.1822,0.8828,-0.8375,0.0983,0.0983,-2.7071
1396949196614,-0.2463,0.1694,0.4937,0.3334,0.6956,-1.3073,-1.5855,-1.5855,-2.8520
1396949196713,0.3553,0.0892,0.0865,0.2954,0.5844,-1.3564,-1.1537,-1.1537,-0.1292
1396949196813,-0.0354,-0.1053,-0.1149,0.2825,0.5376,-1.3202,-0.0570,-0.0570,-0.0790
1396949196912,0.0003,-0.0039,0.0147,0.2898,0.5060,-1.3391,-0.3443,-0.3443,-0.2385
1396949197011,0.0448,0.0031,-0.0473,0.2840,0.4707,-1.3362,-0.2492,-0.2492,0.0272
1396949197111,-0.0666,-0.0259,0.0097,0.2780,0.4539,-1.3363,-0.2779,-0.2779,-0.2154
1396949197210,0.0219,0.0094,0.0043,0.2769,0.4268,-1.3529,-0.2111,-0.2111,-0.1767
1396949197309,0.0576,0.0307,-0.0145,0.2774,0.4132,-1.3562,-0.0733,-0.0733,0.0583
1396949197409,-0.0212,-0.0012,0.0087,0.2774,0.4085,-1.3483,-0.0796,-0.0796,0.0067
1396949197508,-0.0061,-0.0073,0.0088,0.2834,0.3960,-1.3533,-0.1549,-0.1549,-0.0993
1396949197607,0.0230,0.0028,-0.0306,0.2826,0.3929,-1.3515,0.0784,0.0784,0.0952
1396949197706,0.0290,0.0108,0.0532,0.2436,0.4053,-1.2911,0.0123,0.0123,0.1227
1396949197806,-0.0081,-0.0044,0.0078,0.2306,0.3986,-1.2749,0.0255,0.0255,-0.0317
1396949197905,0.0034,0.0022,-0.0371,0.1983,0.4016,-1.2572,0.0066,0.0066,0.1198
1396949198004,-0.0708,-0.0137,0.0648,0.1669,0.4138,-1.2516,0.0080,0.0080,-0.2853
1396949198104,-0.0137,0.0156,0.0383,0.1098,0.4139,-1.2662,-0.1411,-0.1411,-0.1421
1396949198203,0.0265,0.0265,-0.0584,-0.0346,0.4448,-1.3064,0.7028,0.7028,-0.5245
1396949198302,0.0826,0.0288,0.0298,-0.2057,0.5222,-1.3673,0.5408,0.5408,-0.4744
1396949198402,0.0122,0.0617,-0.2030,-0.3487,0.6276,-1.4512,1.4406,1.4406,-2.1960
1396949198501,-0.2577,0.5787,-0.6918,-1.5319,1.2369,-0.9925,10.8022,10.8022,-5.8889
1396949198600,3.4582,1.1978,1.5753,-2.6329,1.3048,-0.0281,-12.1767,-12.1767,7.9208
1396949198700,-3.1109,0.9753,-3.4213,-1.1845,0.9319,-1.4523,13.9719,13.9719,-8.7859
1396949198799,2.6296,0.9008,1.7998,-1.5207,1.2164,-0.9595,-9.7032,-9.7032,5.0403
1396949198898,-1.3614,0.4722,-3.7261,-0.2978,0.3902,-1.5831,10.5688,10.5688,-2.8698
1396949198998,0.0492,0.0017,0.6200,-0.5050,0.7022,-1.4367,-1.8979,-1.8979,0.1706
1396949199097,-0.0380,0.0196,0.1951,-0.4539,0.6573,-1.4673,-0.8721,-0.8721,-0.1621
1396949199196,0.0119,0.0395,-0.2503,-0.4115,0.6172,-1.4851,0.4524,0.4524,0.2442
1396949199296,0.0144,-0.0132,-0.0465,-0.3804,0.6024,-1.4826,-0.2007,-0.2007,-0.0660
1396949199395,0.0208,0.0440,0.0379,-0.3608,0.6074,-1.4843,-0.1125,-0.1125,0.0452
1396949199495,0.0210,0.0343,-0.0182,-0.3387,0.5949,-1.4886,0.1403,0.1403,-0.0440
1396949199593,0.0101,0.0232,-0.0928,-0.3147,0.5784,-1.4877,0.1164,0.1164,0.2569
1396949199693,0.0272,0.0454,0.0511,-0.2988,0.5486,-1.4137,-0.5392,-0.5392,1.1229
1396949199792,-0.0654,0.4177,-0.4685,-1.2003,0.9247,-1.0216,8.2770,8.2770,-3.2457
1396949199891,2.5046,0.6078,2.7226,-1.5702,1.1431,-0.8685,-12.9244,-12.9244,4.7002
1396949199991,-2.7931,0.9056,-5.8781,-0.6312,0.3429,-1.5719,13.5091,13.5091,-7.6978
1396949200090,2.3555,0.5642,2.1012,-1.6842,1.1768,-0.8054,-2.5511,-2.5511,1.4441
1396949200189,-0.3994,1.1508,-4.0780,-0.0084,0.1162,-1.3897,1.3382,1.3382,0.9320
1396949200289,-0.0745,0.0704,0.4172,-0.2007,0.4792,-1.3440,-0.5162,-0.5162,1.0965
1396949200388,0.0220,-0.0164,0.2734,-0.1954,0.4996,-1.3396,-0.5574,-0.5574,0.0215
1396949200487,0.1248,0.0645,-0.0462,-0.1911,0.4912,-1.3459,-0.0647,-0.0647,0.2869
1396949200587,-0.0065,0.0257,-0.1046,-0.1642,0.5491,-1.3335,1.2962,1.2962,-0.7679
1396949200686,0.0651,-0.2239,-0.0392,-0.0022,0.5084,-1.4447,-1.9955,-1.9955,0.2312
1396949200786,0.2040,0.3238,-0.3977,0.0092,0.7197,-1.1811,4.6086,4.6086,2.3733
1396949200885,-0.2337,0.1800,1.3890,0.1795,0.8632,-1.3067,-1.9180,-1.9180,-1.8228
1396949200984,-0.1260,0.6263,0.9309,0.3285,0.4375,-1.4931,-6.5418,-6.5418,-2.8496
1396949201083,0.4449,0.8215,-1.1740,0.2820,-0.2629,-1.4818,-2.0931,-2.0931,-0.1609
1396949201183,0.2753,0.3261,-0.1882,0.1430,-0.1542,-1.3055,1.0787,1.0787,3.4209
1396949201282,0.0844,-0.2293,-0.0190,0.0538,0.1876,-1.0079,3.7295,3.7295,3.7106
1396949201382,0.1573,0.1112,0.0987,-0.3639,0.5453,-0.6369,4.7876,4.7876,2.0126
1396949201481,-0.0587,-0.1243,0.2730,-0.7780,0.6516,-0.2317,-0.2493,-0.2493,1.0444
1396949201580,0.1460,0.0649,-0.0351,0.4852,0.1570,-0.4976,-5.8302,-5.8302,-2.9826
1396949201679,0.7122,0.1578,0.8012,0.4813,0.1168,-0.5190,0.7983,0.7983,2.9115
1396949201779,0.6709,0.7034,-0.2379,-0.8843,0.3942,0.2380,6.2186,6.2186,6.0871
1396949201878,-1.9417,-0.4984,-0.0753,-0.0784,0.2685,0.3844,-2.3111,-2.3111,-4.7437
1396949201977,-0.0687,-0.0396,0.4437,0.6525,-0.0402,-0.1207,0.5840,0.5840,-4.2816
1396949202076,0.0050,0.1735,0.3691,0.4295,-0.2960,-0.4079,-1.8054,-1.8054,-2.9256
1396949202176,0.1901,0.3630,-0.0178,0.1920,-0.4602,-0.5144,-0.2859,-0.2859,-0.1084
1396949202275,-0.1093,0.1131,0.1064,0.0507,-0.4332,-0.4012,0.2162,0.2162,1.0421
1396949202374,0.0620,0.1140,0.0667,-0.0845,-0.4643,-0.3996,-0.9889,-0.9889,-0.8010
1396949202474,0.1875,0.1614,-0.1747,-0.1844,-0.5181,-0.4569,0.1186,0.1186,0.2679
1396949202573,-0.3615,-0.0523,0.0321,-0.1709,-0.4885,-0.4238,0.3772,0.3772,-0.5200
1396949202672,-0.0030,0.0307,0.0851,-0.2663,-0.4838,-0.5787,-1.1292,-1.1292,-1.8861
1396949202772,0.3692,0.1567,-0.3779,-0.3975,-0.5462,-0.8210,-0.7020,-0.7020,-1.3278
1396949202871,0.2381,-0.1150,-0.3059,-0.4071,-0.5520,-0.8439,0.4493,0.4493,0.5000
1396949202970,0.0904,-0.1281,-0.0044,-0.3739,-0.4885,-0.7813,0.7022,0.7022,0.1882
1396949203070,0.0874,-0.0504,-0.0049,-0.3688,-0.4513,-0.7344,0.5768,0.5768,0.3100
1396949203169,-0.0448,0.0311,0.0136,-0.3576,-0.4080,-0.6853,0.3712,0.3712,-0.0721
1396949203268,-0.0290,0.0866,0.0094,-0.3265,-0.3904,-0.6936,0.0312,0.0312,-0.1591
1396949203368,-0.0629,0.0068,0.0790,-0.2817,-0.3856,-0.7137,-0.1042,-0.1042,-0.3908
1396949203467,0.0073,-0.0371,0.0860,-0.2689,-0.4107,-0.8101,-0.5123,-0.5123,-0.9374
1396949203566,0.1995,0.0456,-0.0294,-0.2897,-0.4258,-0.9187,-0.4429,-0.4429,-0.7564
1396949203666,0.2490,0.0995,-0.1504,-0.3076,-0.4295,-0.9691,0.2743,0.2743,-0.1446
1396949203765,0.1839,0.1000,-0.0276,-0.2860,-0.3925,-0.9590,0.4718,0.4718,0.0627
1396949203864,0.0979,0.1467,0.1125,-0.2396,-0.3372,-0.9225,0.4957,0.4957,0.2853
1396949203964,0.0278,0.0793,0.1079,-0.2053,-0.3387,-0.8876,0.0391,0.0391,0.3150
1396949204063,0.0324,0.0415,-0.1355,-0.2070,-0.3591,-0.8609,0.3422,0.3422,0.3157
1396949204162,0.2000,0.0416,-0.2494,-0.2696,-0.2846,-0.8456,1.3329,1.3329,0.1077
1396949204262,0.1572,0.0586,-0.4236,-0.4685,-0.0574,-0.7688,3.7759,3.7759,-0.6217
1396949204361,0.2025,0.0274,0.3910,-0.5773,0.2688,-0.6979,1.0160,1.0160,-1.0333
1396949204461,-0.0242,0.0311,-0.1955,-0.5121,0.3349,-0.7812,1.4767,1.4767,-0.9712
1396949204560,-0.1356,0.2551,-0.0661,-0.8151,0.7871,-0.6666,3.1740,3.1740,-3.3713
1396949204659,0.4925,0.1794,0.1536,-0.8053,0.9844,-0.8664,-0.7469,-0.7469,-0.5697
1396949204758,-0.0978,0.2673,-0.2681,-0.7518,1.0828,-0.8537,1.1216,1.1216,-2.0055
1396949204858,0.7436,-0.5178,-0.2646,-0.5051,1.2027,-1.1484,1.2397,1.2397,-1.0028
1396949204957,-0.7387,0.2047,-0.8491,2.3366,1.1310,2.1425,8.0528,8.0528,-7.6341
1396949205056,0.4947,0.4123,0.4184,2.2547,0.4777,2.1304,-3.4390,-3.4390,2.2951
1396949205155,0.5942,3.3486,1.5100,-0.0070,0.7283,-1.3522,-17.8735,-17.8735,7.0013
1396949205255,-0.5991,2.8150,-1.4651,2.0710,0.8612,2.2915,12.5726,12.5726,-11.7957
1396949205354,2.1760,3.0686,2.8311,0.1788,1.2087,-1.5794,-28.1708,-28.1708,13.0062
1396949205453,-0.4339,3.5107,-3.6717,-0.2808,1.3514,-1.1266,21.5535,21.5535,-5.2159
1396949205553,-0.0813,0.6795,0.9825,-0.0967,0.7413,-0.7619,-10.0886,-10.0886,-0.8578
1396949205652,0.0223,0.0948,0.3634,-0.0736,0.7376,-0.7875,-1.6389,-1.6389,0.1837
1396949205752,0.0621,0.0501,-0.2919,-0.0141,0.6540,-0.7963,0.4321,0.4321,-0.0515
1396949205851,0.1664,-0.0371,-0.0598,-0.0093,0.6536,-0.7920,0.4564,0.4564,0.0912
1396949205950,0.1187,0.0317,-0.0275,0.0339,0.6818,-0.8171,0.2300,0.2300,0.0281
1396949206049,0.0093,0.0197,0.1045,0.0554,0.6989,-0.8128,-0.3564,-0.3564,0.1979
1396949206149,0.0750,0.0129,-0.0239,0.0808,0.6697,-0.7977,-0.0981,-0.0981,0.2404
1396949206248,0.0156,0.0067,-0.0819,0.0881,0.6565,-0.7668,-0.2562,-0.2562,0.3644
1396949206348,-0.0494,0.0599,-0.0047,0.0807,0.6460,-0.7246,0.0134,0.0134,0.2022
1396949206447,0.0019,0.1261,-0.0261,0.0684,0.6441,-0.7018,0.0336,0.0336,0.2401
1396949206546,-0.2306,0.1968,-0.5954,-0.0418,0.7719,-0.7109,4.1908,4.1908,-1.1496
1396949206645,-0.7607,-0.3549,-0.2982,0.2866,1.3819,-1.4072,4.7049,4.7049,-4.7224
1396949206745,-0.0338,0.2130,-0.1896,1.7524,0.8889,3.1096,3.0150,3.0150,-5.7782
1396949206844,-0.0653,0.5039,-0.3302,1.7787,0.4973,3.0354,1.1419,1.1419,-2.1523
1396949206943,-0.3003,1.2780,0.1076,1.7969,0.4161,3.0340,-1.5760,-1.5760,0.8155
1396949207043,1.8384,6.0506,1.1733,-0.6217,1.0486,-0.5445,-14.1130,-14.1130,29.8347
1396949207142,-0.9941,0.2264,-1.0687,-0.5952,0.3958,-0.4672,1.3576,1.3576,0.8978
1396949207242,0.2784,0.0341,0.5078,-0.5572,0.4801,-0.3797,0.3462,0.3462,0.5627
1396949207340,0.0500,0.1661,0.1545,-0.5223,0.4503,-0.3857,-0.7851,-0.7851,0.3174
1396949207440,-0.0029,0.1071,-0.0657,-0.4753,0.4119,-0.3721,0.2009,0.2009,0.3052
1396949207539,0.0036,0.0065,0.0215,-0.4451,0.3923,-0.3599,-0.1906,-0.1906,0.0072
1396949207638,-0.0507,0.0287,-0.0231,-0.4091,0.3701,-0.3818,-0.2039,-0.2039,-0.2263
1396949207738,-0.1100,0.1675,-0.4306,-0.4634,0.4670,-0.3989,2.8702,2.8702,-1.2560
1396949207837,0.0727,0.1126,0.1284,-0.6741,0.7837,-0.3124,2.1258,2.1258,-0.9333
1396949207936,-0.2981,0.0087,-0.0137,-0.8858,1.0867,-0.1894,2.3657,2.3657,-2.2383
1396949208036,-0.3710,0.2176,-0.1766,2.6025,1.3692,2.4701,4.7275,4.7275,-5.7397
1396949208135,0.0496,0.9691,0.1622,2.2325,0.8017,2.7390,1.6854,1.6854,-3.1020
1396949208234,1.3970,6.8578,2.3908,0.0716,1.3052,-1.3815,-18.3123,-18.3123,23.7986
1396949208334,-6.2904,5.1667,-7.1872,-0.3772,0.4407,-0.6750,4.6755,4.6755,0.8365
1396949208433,0.0410,-0.0434,-0.4403,-0.2997,0.5033,-0.5235,0.0598,0.0598,0.5819
1396949208532,-0.0232,0.0357,-0.0189,-0.2609,0.3826,-0.5399,-0.1981,-0.1981,-0.0696
1396949208632,-0.0951,0.0880,-0.1249,-0.2471,0.3337,-0.5281,0.0197,0.0197,-0.0622
1396949208731,0.0071,0.0284,-0.0029,-0.2285,0.3258,-0.5318,0.1058,0.1058,0.0655
1396949208830,-0.0147,0.0640,-0.0315,-0.2115,0.3274,-0.5359,-0.0720,-0.0720,-0.1194
1396949208930,-0.0007,0.1057,-0.1270,-0.2194,0.3833,-0.5400,0.7431,0.7431,-0.0334
1396949209029,-0.0242,0.2856,-0.4075,-0.4168,0.6664,-0.5773,7.3314,7.3314,-3.9628
1396949209129,-0.5234,1.1056,-0.9287,2.5809,1.0940,2.0662,7.5680,7.5680,-8.2387
1396949209228,3.0718,0.4275,3.0359,-0.5467,1.2667,-0.6215,-20.6227,-20.6227,10.5693
1396949209327,-2.0510,1.6061,-6.2335,0.7118,1.4398,-2.2909,10.1708,10.1708,-11.8808
1396949209427,1.4991,1.5851,1.5035,2.1021,1.0447,2.6833,-11.1880,-11.1880,9.5577
1396949209525,-0.3888,3.9435,1.6216,0.0322,0.2968,-0.8983,7.2726,7.2726,-6.0687
1396949209625,0.7589,0.4023,1.8921,-0.1350,0.9031,-0.8739,-3.4652,-3.4652,1.4931
1396949209724,0.1227,0.0586,-0.2651,-0.0908,0.7038,-0.8655,-1.5773,-1.5773,0.6150
1396949209824,0.0060,0.1186,-0.5079,-0.0640,0.5954,-0.8259,0.2216,0.2216,0.4921
1396949209923,-0.0563,0.0020,-0.1440,-0.0417,0.5904,-0.8199,-0.3471,-0.3471,-0.2043
1396949210022,0.0171,0.1093,-0.0984,0.0305,0.5751,-0.7934,0.6088,0.6088,0.7535
1396949210121,-0.1437,0.1511,-0.0557,-0.0050,0.7037,-0.7391,2.4990,2.4990,-0.4495
1396949210221,0.0650,0.0930,0.2107,-0.0686,0.8553,-0.7997,0.2257,0.2257,-0.0089
1396949210320,0.1026,-0.0361,0.1201,-0.1974,0.7613,-0.8069,-1.8938,-1.8938,0.6698
1396949210420,-0.1098,0.1192,-0.2792,-0.3631,0.7975,-0.7448,2.9218,2.9218,-1.0096
1396949210519,-1.8576,0.1662,-1.1742,1.3141,1.3677,-2.8452,5.8869,5.8869,-9.5442
1396949210618,0.7333,1.6956,0.9152,1.4866,0.9051,3.0874,-6.1494,-6.1494,7.5479
1396949210718,-2.5891,3.6073,-0.0330,-0.2193,1.0866,-1.1507,5.3013,5.3013,-10.6538
1396949210817,-0.2745,0.8348,-0.6129,1.5666,0.9280,3.0916,3.1379,3.1379,-3.5587
1396949210916,3.1776,3.2930,0.6663,-0.3461,0.9287,-0.8476,-6.1369,-6.1369,-2.2527
1396949211015,0.3862,-0.0735,0.1167,-0.1957,1.0525,-1.0182,-1.3280,-1.3280,0.4998
1396949211115,0.1180,0.1546,0.1090,-0.1969,0.9339,-0.9129,-0.7119,-0.7119,0.4964
1396949211214,-0.0204,0.0580,-0.2128,-0.1749,0.8944,-0.8627,-0.0984,-0.0984,0.3935
1396949211314,0.0340,0.0518,-0.0644,-0.1653,0.8760,-0.8506,-0.2600,-0.2600,0.2829
1396949211413,0.0878,0.1138,-0.0961,-0.1409,0.8429,-0.8510,-0.1614,-0.1614,0.2252
1396949211512,0.1479,0.0534,-0.0560,-0.1498,0.8051,-0.8080,0.0516,0.0516,0.7402
1396949211611,0.0278,0.0511,0.0645,-0.1214,0.8108,-0.7113,-0.2572,-0.2572,0.4731
1396949211710,0.0758,-0.0145,0.0821,-0.1372,0.8361,-0.6590,0.4563,0.4563,0.3985
1396949211810,0.0280,0.0512,0.0100,-0.1677,0.8217,-0.6222,0.0941,0.0941,-0.2005
1396949211909,0.0156,0.0705,-0.1394,-0.1961,0.8139,-0.6234,0.0471,0.0471,0.1793
1396949212008,-0.8358,0.1987,-0.9495,-0.3465,1.0916,-0.7680,5.3227,5.3227,-5.5319
1396949212108,0.2201,0.7618,0.1860,1.7407,1.0639,3.0500,3.1832,3.1832,-6.5729
1396949212207,2.4840,2.1539,0.7323,1.5307,0.9962,-3.0267,-6.3584,-6.3584,10.1097
1396949212307,-0.8472,0.2360,-1.9204,0.0366,1.1443,-1.3448,6.4263,6.4263,-9.7469
1396949212406,5.7949,3.5887,2.6255,1.8252,0.8042,2.9224,0.8863,0.8863,-0.7768
1396949212505,-4.3275,0.9954,-6.3262,-0.3406,0.5385,-0.6170,-2.4352,-2.4352,-6.7679
1396949212604,0.1361,-0.0176,0.1160,-0.4017,0.7564,-0.6304,0.7662,0.7662,0.4408
1396949212705,-0.5677,0.0632,-0.4302,-0.3294,0.6275,-0.5842,-1.7360,-1.7360,-0.1572
1396949212803,0.1602,0.1664,-0.1649,-0.2867,0.5538,-0.6080,-0.6819,-0.6819,0.7849
1396949212902,0.1598,0.1290,0.2005,-0.3336,0.5418,-0.5134,0.1522,0.1522,1.0095
1396949213002,0.1316,0.1125,0.1431,-0.3487,0.5566,-0.4432,-0.1146,-0.1146,0.4889
1396949213101,0.1337,0.1499,-0.0705,-0.3448,0.4823,-0.3871,-0.7391,-0.7391,0.7830
1396949213200,0.0050,-0.0052,-0.0867,-0.3232,0.4027,-0.3177,-0.0278,-0.0278,0.7545
1396949213301,-0.1924,-0.0425,-0.1523,-0.4640,0.4948,-0.1574,3.2436,3.2436,1.4303
1396949213399,-0.3437,0.1439,-0.0421,-1.1968,0.7849,0.2634,4.5214,4.5214,-1.1854
1396949213498,0.9909,0.0214,-0.0097,-2.3557,1.0687,0.6782,-3.0416,-3.0416,1.2267
1396949213598,0.5082,1.6906,-3.8785,-1.0589,0.4242,-0.4563,-4.0627,-4.0627,9.4012
1396949213697,-2.5319,2.2869,-0.9129,-1.4165,0.2982,0.8860,12.4639,12.4639,-0.5059
1396949213796,-1.3741,2.3719,0.6229,3.0436,0.6249,2.4154,-1.3590,-1.3590,-11.2717
1396949213896,0.2642,3.5835,0.3417,1.4838,0.9073,-2.6424,-9.3688,-9.3688,5.2139
1396949213995,1.0667,5.4913,-1.4752,-0.0942,0.2714,-0.5958,-1.8214,-1.8214,14.6829
1396949214094,-2.9613,0.3145,-3.9648,-1.4408,0.8657,0.9358,22.0851,22.0851,-6.0623
1396949214193,2.3082,3.1430,1.7968,2.0515,0.2847,2.9103,-9.0583,-9.0583,0.4147
1396949214293,-0.6271,4.4158,1.4074,0.7139,0.7468,-1.8092,-18.4693,-18.4693,9.6838
1396949214393,-1.6008,4.8706,-5.6224,-0.1094,0.3103,-0.1284,8.7310,8.7310,6.3554
1396949214492,-3.2838,2.9474,-1.3794,-2.9620,0.9115,2.2003,22.0758,22.0758,-12.1763
1396949214591,-0.1336,3.7049,0.3005,1.6758,0.2425,-3.1266,-10.9176,-10.9176,0.0647
1396949214690,0.5857,5.1454,-0.2333,0.6588,0.4566,-1.4799,-14.1074,-14.1074,13.7925
1396949214789,-3.0119,0.2026,-1.5951,-0.3758,0.9288,0.0185,12.7262,12.7262,3.3006
1396949214889,-0.0535,2.9002,1.5113,2.0550,0.3027,2.5319,3.0138,3.0138,-10.4619
1396949214988,0.3116,4.9070,-0.0648,1.3230,0.2758,-2.7518,-10.4334,-10.4334,11.6225
1396949215087,-0.0512,0.2854,-3.7851,0.1467,0.6394,-0.8794,-0.8078,-0.8078,10.1106
1396949215187,-0.1671,-0.0534,1.7067,-0.2148,1.1684,-0.3525,0.5183,0.5183,2.4451
1396949215286,0.2746,-0.3012,0.1090,-0.0605,1.0073,-0.3558,-1.2664,-1.2664,0.6639
1396949215386,0.3007,0.0285,-0.4491,-0.0315,0.9156,-0.3359,0.1892,0.1892,0.4529
1396949215485,-0.0057,-0.1061,0.0541,-0.0766,0.9366,-0.2303,-0.0407,-0.0407,-0.1680
1396949215584,0.1815,0.0966,-0.0326,-0.0442,0.8770,-0.2087,-0.4269,-0.4269,0.3749
1396949215683,0.1613,0.1900,-0.2589,-0.1299,0.8553,-0.0812,0.6154,0.6154,1.0084
1396949215783,0.1146,0.0220,0.1666,-0.1830,0.8495,-0.0309,-0.7068,-0.7068,0.0158
1396949215882,0.1274,-0.0042,-0.0518,-0.1819,0.7790,-0.0785,-0.7517,-0.7517,-0.1933
1396949215982,0.1369,0.0164,0.0093,-0.1727,0.7306,-0.1268,-0.4919,-0.4919,-0.4452
1396949216081,0.2143,-0.0025,0.0656,-0.1358,0.6627,-0.1728,-0.8792,-0.8792,-0.1268
1396949216180,0.2079,0.0536,-0.1394,-0.0654,0.5499,-0.2410,-1.0613,-1.0613,-0.4041
1396949216279,0.1857,0.0264,0.1107,0.0035,0.4381,-0.1972,-1.7844,-1.7844,-0.6211
1396949216379,0.2495,0.0754,-0.3563,-0.0400,0.3419,-0.0900,-0.1452,-0.1452,-0.0700
1396949216478,-0.0256,0.0343,-1.5998,-0.3474,0.4015,0.0076,4.9963,4.9963,-0.7303
1396949216579,-1.0067,1.7288,-0.2652,2.6516,1.3896,2.3668,6.8524,6.8524,-14.8137
1396949216677,2.2684,2.6624,-0.9762,1.3058,0.4612,3.1144,-2.9209,-2.9209,1.8793
1396949216776,0.9953,7.9313,-6.1155,-0.0305,0.2201,-0.8793,-8.4488,-8.4488,26.6753
1396949216875,-2.6614,1.7559,0.6660,-1.4069,0.9312,0.8013,17.0251,17.0251,-2.7092
1396949216974,-0.1580,3.5660,-0.1463,2.3437,0.8122,2.7464,-5.6864,-5.6864,-8.5909
1396949217074,1.3516,5.7277,0.2411,0.4389,0.8728,-1.8510,-15.8906,-15.8906,17.1336
1396949217173,-0.3182,-0.5616,-1.0433,-0.2509,0.5157,-0.3978,8.8244,8.8244,3.0578
1396949217272,0.6782,0.2064,1.4266,-0.2544,0.9618,-0.2973,1.2544,1.2544,-1.4986
1396949217372,0.3394,0.2393,-0.4800,-0.2015,0.8437,-0.4342,-0.8477,-0.8477,0.0537
1396949217471,0.1853,0.0121,0.0476,-0.2218,0.8659,-0.4246,0.4372,0.4372,0.0386
1396949217570,0.1325,0.1038,-0.1182,-0.2222,0.8651,-0.4019,0.2744,0.2744,0.1731
1396949217670,0.1574,-0.0031,0.0050,-0.2444,0.8756,-0.3734,-0.2301,-0.2301,0.1382
1396949217769,0.0277,-0.0666,-0.0992,-0.2159,0.8640,-0.3035,0.2383,0.2383,-0.0481
1396949217868,0.0317,-0.0456,0.1578,-0.2016,0.8491,-0.2974,-0.6377,-0.6377,-0.2802
1396949217968,0.0961,0.0255,-0.0367,-0.2449,0.8027,-0.3054,-0.2724,-0.2724,-0.0236
1396949218067,0.1503,0.2144,0.0901,-0.2844,0.7693,-0.3219,-0.3914,-0.3914,-0.1963
1396949218166,0.2287,0.3336,0.2075,-0.2620,0.6498,-0.3359,-2.5074,-2.5074,0.4203
1396949218265,-0.2142,0.4271,0.1956,0.1182,0.1648,-0.3704,-7.7983,-7.7983,-0.9875
1396949218365,0.3213,0.1580,-0.2249,0.1417,-0.2765,-0.4943,-0.8446,-0.8446,-2.1954
1396949218464,0.3498,0.2120,-0.1488,0.1122,-0.3354,-0.5053,0.2563,0.2563,0.1147
1396949218564,-0.0479,0.1905,0.0146,0.1181,-0.3008,-0.5271,0.1513,0.1513,0.0345
1396949218663,-0.1121,0.1091,-0.5367,0.2402,-0.3257,-0.5473,0.5555,0.5555,-0.7098
1396949218762,-0.0512,0.2769,0.1820,0.2914,-0.1589,-0.6579,2.4126,2.4126,-0.7250
1396949218862,-0.0285,0.3157,0.4406,0.2902,-0.0145,-0.7963,1.1642,1.1642,-0.8112
1396949218961,0.4211,0.0256,0.2770,0.3073,0.0258,-0.8004,0.3670,0.3670,0.4159
1396949219060,0.0461,-0.0784,0.2488,0.3441,0.0292,-0.8126,0.0018,0.0018,-0.4801
1396949219160,0.1899,0.0680,-0.3539,0.4160,-0.0989,-0.8239,-0.7517,-0.7517,-0.5254
1396949219271,0.1803,0.0137,0.1541,0.3944,-0.1101,-0.8746,0.0968,0.0968,-0.7537
1396949219358,0.3047,0.2572,-0.0109,0.2475,-0.0862,-0.9224,1.0179,1.0179,0.4883
1396949219458,0.5892,0.1828,0.0970,0.4112,0.1361,-0.6376,-1.2562,-1.2562,4.7744
1396949219558,-0.3757,-0.0824,0.3464,0.5401,0.2415,-0.5342,0.3635,0.3635,-0.4309
1396949219656,0.0662,0.0992,0.1123,0.3345,0.2397,-0.6741,1.1400,1.1400,-1.1204
1396949219755,0.6432,-0.0240,0.3360,0.1517,0.2720,-0.7441,-0.9437,-0.9437,0.6659
1396949219855,0.2878,-0.0682,0.1874,0.1245,0.2179,-0.7339,0.5234,0.5234,0.1706
1396949219954,0.2164,0.1716,-0.1207,0.1032,0.1837,-0.6896,-0.6822,-0.6822,0.2351
1396949220053,0.1290,0.1501,0.2323,-0.0260,0.1360,-0.7192,-0.7332,-0.7332,-0.6517
1396949220153,-0.0878,0.1773,0.3239,-0.0569,0.2458,-0.7571,-1.0223,-1.0223,0.0383
1396949220252,0.1467,0.0578,-0.0691,0.0726,0.0917,-0.7506,0.3816,0.3816,0.6192
1396949220351,-0.0127,0.0614,0.0090,-0.0420,0.0619,-0.8071,-1.5396,-1.5396,-1.0407
1396949220451,-0.2277,0.3263,-0.1954,-0.0903,0.0307,-0.9211,1.0879,1.0879,-1.5313
1396949220550,0.0086,0.1949,0.1738,-0.0861,0.1144,-1.1077,-1.5641,-1.5641,-1.4879
1396949220649,-0.1926,0.3397,0.0370,-0.1410,0.0585,-1.2715,0.7702,0.7702,-2.2230
1396949220749,-0.0087,0.2092,-0.1631,-0.0064,0.1083,-1.4686,0.8524,0.8524,-1.7160
1396949220848,0.1217,-0.0079,0.1611,0.0519,0.1649,-1.6446,-0.2353,-0.2353,-1.4675
1396949220947,0.0590,0.1966,-0.0356,0.1293,0.0793,-1.7336,-0.3276,-0.3276,-0.7829
1396949221047,0.1639,0.2743,0.0504,0.2122,0.0723,-1.7576,-0.0562,-0.0562,0.1289
1396949221146,0.1241,0.2852,-0.0156,0.2236,0.0139,-1.7306,-0.5175,-0.5175,0.3276
1396949221246,0.2068,0.2829,0.0313,0.2375,0.0314,-1.6644,-0.1975,-0.1975,0.7454
1396949221345,0.2451,0.3049,-0.1275,0.1179,0.0777,-1.5967,1.1947,1.1947,1.0192
1396949221444,0.0584,0.3167,0.0794,-0.0157,0.2037,-1.5138,1.0223,1.0223,0.9355
1396949221543,0.2657,0.2161,-0.0561,0.0702,0.2234,-1.4046,-0.6535,-0.6535,1.1697
1396949221642,0.0259,0.1297,-0.0179,0.1760,0.1369,-1.2912,-1.1497,-1.1497,0.9714
1396949221742,-0.0105,0.1818,-0.0023,0.1218,0.1102,-1.2472,-0.8113,-0.8113,0.5594
1396949221841,0.0682,0.1604,0.0898,0.1027,0.1025,-1.2223,0.4524,0.4524,0.2752
1396949221940,0.1084,0.1093,0.1183,0.0851,0.0599,-1.2173,-0.3079,-0.3079,-0.0727
1396949222040,0.0944,0.2767,-0.1422,0.1184,0.1375,-1.2293,0.7971,0.7971,0.0300
1396949222139,-0.1281,0.1258,0.3110,0.2285,0.0930,-1.2909,-0.8822,-0.8822,-1.3822
1396949222239,0.2356,0.2763,0.1367,0.1614,0.0061,-1.3430,-0.9586,-0.9586,-0.1738
1396949222338,0.3692,0.2754,-0.0874,0.1080,-0.0980,-1.2316,-1.7058,-1.7058,1.2189
1396949222437,0.6276,0.1711,-0.4745,0.2911,-0.2459,-1.0918,0.5095,0.5095,1.9634
1396949222536,0.2504,0.2732,-0.0655,0.4189,-0.1541,-0.7950,0.1037,0.1037,3.6244
1396949222636,-0.8131,0.5372,0.0108,0.6103,0.0319,-0.6319,0.9877,0.9877,1.0419
1396949222735,-0.4173,0.2266,0.6377,0.6124,0.0235,-0.6248,-1.2094,-1.2094,-0.8587
1396949222834,0.1209,0.0255,0.1933,0.4587,-0.1033,-0.6617,-0.7403,-0.7403,-0.8516
1396949222934,-0.0610,0.0521,0.1459,0.3951,-0.2976,-0.7177,-1.7822,-1.7822,-2.4405
1396949223033,0.3932,0.1688,-0.2001,0.3468,-0.3191,-0.8437,0.6800,0.6800,-0.4317
1396949223133,-0.0180,-0.1888,0.4298,0.3722,-0.3270,-0.9154,-0.3394,-0.3394,-1.0201
1396949223232,0.3403,0.2040,-0.1727,0.1210,-0.2989,-1.0584,1.2141,1.2141,-1.2870
1396949223331,0.1779,0.2151,-0.0001,0.0866,-0.2269,-1.1960,0.9126,0.9126,-1.3538
1396949223431,0.1773,0.2436,0.3320,0.0676,-0.2601,-1.3409,-1.0692,-1.0692,-1.0192
1396949223530,0.0460,0.3225,-0.0483,0.0524,-0.3511,-1.4169,-0.1077,-0.1077,-0.5992
1396949223629,0.0628,0.4098,0.1158,0.0681,-0.4011,-1.4241,-0.9794,-0.9794,0.2872
1396949223728,0.1869,-0.0766,0.1875,0.1255,-0.3839,-1.3113,0.3595,0.3595,1.2542
1396949223827,-0.6779,0.2836,0.3248,0.1180,-0.3442,-1.3708,0.5238,0.5238,-2.1382
1396949223927,0.5199,0.4102,0.2239,0.0462,-0.3523,-1.4859,-0.8568,-0.8568,0.4438
1396949224026,-0.0624,0.1715,-0.1970,0.0277,-0.3667,-1.4035,0.5811,0.5811,-0.2132
1396949224125,0.0069,0.1760,0.2795,0.0911,-0.3364,-1.4334,-0.1091,-0.1091,-0.1113
1396949224225,0.2167,0.2893,0.0964,0.0199,-0.3058,-1.3868,0.3595,0.3595,0.3212
1396949224324,0.1197,0.1520,0.1236,-0.0055,-0.3190,-1.3440,-0.3044,-0.3044,-0.0727
1396949224424,0.1765,0.1001,0.1636,-0.0151,-0.3374,-1.3465,-0.6070,-0.6070,-0.4080
1396949224523,0.1260,0.1336,-0.0929,-0.0108,-0.3541,-1.3360,0.4969,0.4969,0.0700
1396949224623,-0.0486,0.2076,0.1485,0.0194,-0.3240,-1.3596,0.2757,0.2757,-0.5904
1396949224722,0.1534,0.1996,0.2177,0.0125,-0.3055,-1.3937,-0.2371,-0.2371,-0.3422
1396949224821,0.0434,0.1761,0.1173,-0.0148,-0.3125,-1.4007,0.2026,0.2026,-0.4585
1396949224920,0.1477,0.2159,0.1241,-0.0686,-0.3350,-1.4420,0.0170,0.0170,-0.0215
1396949225019,-0.0066,0.2267,0.1468,-0.1195,-0.3168,-1.4500,-0.1920,-0.1920,-0.3724
1396949225119,0.0778,0.2238,0.0754,-0.1694,-0.2984,-1.4472,0.1419,0.1419,-0.0716
1396949225218,0.0182,0.2631,0.0771,-0.1827,-0.2898,-1.4536,1.2372,1.2372,-0.2349
1396949225317,0.1106,0.2969,0.0942,-0.2179,-0.2239,-1.4235,0.2332,0.2332,0.1571
1396949225417,0.1146,0.2665,0.0824,-0.2542,-0.1730,-1.4186,0.7165,0.7165,-0.1950
1396949225516,0.0516,0.2707,0.0748,-0.2839,-0.0960,-1.4105,0.7772,0.7772,-0.1986
1396949225615,0.0001,0.2728,0.0392,-0.2707,0.0055,-1.4051,1.0182,1.0182,-0.3208
1396949225715,0.1593,0.2950,-0.0725,-0.3158,0.1337,-1.4090,1.3937,1.3937,-0.4351
1396949225814,-0.0569,0.2458,-0.2058,-0.2792,0.1967,-1.4082,-0.3469,-0.3469,-0.0094
1396949225913,0.1363,0.2384,-0.1214,-0.3392,0.2175,-1.3851,1.0024,1.0024,-0.0836
1396949226012,0.0594,0.2188,-0.0844,-0.4235,0.2492,-1.3842,0.2649,0.2649,-0.0715
1396949226112,0.0489,0.2176,-0.0900,-0.4251,0.2626,-1.4018,-0.1172,-0.1172,-0.4801
1396949226211,0.0599,0.2681,-0.0412,-0.4027,0.2660,-1.4091,0.0736,0.0736,0.2050
1396949226311,0.0720,0.2560,-0.0801,-0.3747,0.2648,-1.3901,0.0724,0.0724,0.2223
1396949226410,0.0956,0.3058,-0.0406,-0.3727,0.2655,-1.3973,-0.0866,-0.0866,-0.3391
1396949226510,0.2520,0.4208,-0.0827,-0.2763,0.2744,-1.5059,-0.0205,-0.0205,-0.0975
1396949226609,0.0404,0.2250,-0.1224,-0.2147,0.2744,-1.5079,-0.0075,-0.0075,-0.0073
1396949226708,0.0418,0.2675,-0.0077,-0.1841,0.2743,-1.5092,-0.0018,-0.0018,-0.0236
1396949226807,0.0684,0.2681,-0.0554,-0.1029,0.2742,-1.5119,0.0012,0.0012,-0.0171
1396949226906,0.0378,0.2491,-0.0603,-0.0662,0.2742,-1.5127,0.0051,0.0051,0.0016
1396949227006,0.0461,0.2654,-0.0398,-0.0656,0.2744,-1.5126,-0.0021,-0.0021,0.0028
1396949227105,0.0188,0.2124,-0.0130,-0.0434,0.2225,-1.5180,0.0013,0.0013,0.0016
1396949227204,0.0094,0.1418,-0.0119,-0.0315,0.1498,-1.5200,0.0011,0.0011,0.0016
1396949227304,-0.0003,0.1066,-0.0048,-0.0282,0.1114,-1.5203,0.0009,0.0009,0.0004
1396949227403,0.0011,0.0818,-0.0034,-0.0268,0.0874,-1.5253,-0.0028,-0.0028,-0.0008
1396949227502,0.0013,0.0630,-0.0041,-0.0260,0.0724,-1.5372,-0.0028,-0.0028,0.0027
1396949227602,0.0061,0.0546,-0.0005,-0.0250,0.0621,-1.5408,-0.0040,-0.0040,0.0016
1396949227701,0.0007,0.0433,-0.0029,-0.0245,0.0536,-1.5406,-0.0005,-0.0005,0.0003
1396949227800,-0.0002,0.0358,-0.0055,-0.0236,0.0461,-1.5405,0.0008,0.0008,0.0064
1396949227900,0.0006,0.0306,0.0007,-0.0234,0.0399,-1.5403,-0.0017,-0.0017,0.0028
1396949227999,0.0029,0.0247,0.0018,-0.0228,0.0350,-1.5402,-0.0029,-0.0029,0.0052
1396949228098,0.0035,0.0271,-0.0000,-0.0224,0.0307,-1.5401,-0.0065,-0.0065,0.0040
1396949228198,0.0019,0.0177,0.0031,-0.0218,0.0270,-1.5400,0.0006,0.0006,0.0015
1396949228297,-0.0010,0.0137,-0.0017,-0.0218,0.0240,-1.5399,-0.0006,-0.0006,-0.0021
1396949228397,-0.0037,0.0110,0.0033,-0.0218,0.0213,-1.5399,-0.0017,-0.0017,0.0003
1396949228496,-0.0012,0.0107,-0.0006,-0.0216,0.0191,-1.5398,-0.0018,-0.0018,0.0003
1396949228595,0.0006,0.0099,-0.0006,-0.0214,0.0173,-1.5397,-0.0017,-0.0017,0.0015
1396949228695,0.0013,0.0063,0.0004,-0.0212,0.0156,-1.5396,-0.0005,-0.0005,0.0027
1396949228794,0.0012,0.0088,-0.0026,-0.0211,0.0143,-1.5395,-0.0006,-0.0006,0.0003
1396949228893,0.0002,0.0048,-0.0045,-0.0211,0.0132,-1.5393,-0.0006,-0.0006,0.0002
1396949228992,0.0020,0.0037,-0.0035,-0.0210,0.0122,-1.5392,-0.0030,-0.0030,0.0039
1396949229092,0.0001,0.0018,-0.0005,-0.0209,0.0112,-1.5391,-0.0042,-0.0042,-0.0009
1396949229191,-0.0015,-0.0026,0.0005,-0.0212,0.0105,-1.5390,-0.0006,-0.0006,0.0039
1396949229290,-0.0026,0.0005,-0.0024,-0.0211,0.0098,-1.5388,0.0018,0.0018,0.0016
1396949229389,0.0003,0.0037,-0.0035,-0.0211,0.0093,-1.5387,-0.0066,-0.0066,0.0016
1396949229489,-0.0035,0.0051,-0.0024,-0.0211,0.0087,-1.5385,0.0006,0.0006,0.0016
1396949229588,0.0004,0.0000,0.0015,-0.0212,0.0084,-1.5384,-0.0030,-0.0030,0.0028
1396949229688,-0.0001,-0.0012,-0.0015,-0.0217,0.0081,-1.5383,0.0018,0.0018,0.0017
1396949229787,0.0036,0.0025,-0.0005,-0.0216,0.0081,-1.5382,0.0018,0.0018,0.0017
1396949229887,-0.0012,0.0032,-0.0005,-0.0215,0.0078,-1.5381,-0.0018,-0.0018,0.0017
1396949229986,-0.0011,0.0010,-0.0054,-0.0217,0.0075,-1.5380,-0.0007,-0.0007,0.0006
1396949230085,-0.0028,-0.0039,-0.0024,-0.0218,0.0073,-1.5378,-0.0030,-0.0030,0.0030
1396949230184,0.0037,-0.0013,0.0014,-0.0216,0.0071,-1.5376,-0.0018,-0.0018,0.0030
1396949230283,-0.0001,-0.0022,-0.0005,-0.0216,0.0071,-1.5374,-0.0019,-0.0019,0.0030
1396949230383,0.0009,0.0032,0.0015,-0.0216,0.0068,-1.5373,-0.0054,-0.0054,0.0043
1396949230482,-0.0029,0.0030,0.0015,-0.0217,0.0066,-1.5372,-0.0031,-0.0031,0.0019
1396949230582,0.0002,-0.0017,0.0054,-0.0219,0.0067,-1.5369,0.0017,0.0017,0.0006
1396949230681,0.0012,0.0010,-0.0044,-0.0220,0.0066,-1.5368,0.0005,0.0005,0.0043
1396949230780,-0.0034,-0.0001,-0.0024,-0.0222,0.0063,-1.5367,-0.0031,-0.0031,-0.0005
1396949230879,0.0003,-0.0039,-0.0005,-0.0221,0.0064,-1.5366,0.0017,0.0017,0.0031
1396949230978,0.0022,0.0026,0.0044,-0.0220,0.0063,-1.5364,-0.0007,-0.0007,0.0019
1396949231078,0.0012,-0.0031,-0.0015,-0.0220,0.0063,-1.5363,-0.0007,-0.0007,-0.0005
1396949231177,0.0021,0.0007,-0.0025,-0.0220,0.0062,-1.5361,-0.0019,-0.0019,0.0032
1396949231277,0.0011,0.0007,-0.0044,-0.0220,0.0063,-1.5359,-0.0031,-0.0031,0.0032
1396949231377,-0.0004,-0.0030,0.0015,-0.0223,0.0063,-1.5357,-0.0043,-0.0043,0.0020
1396949231476,0.0033,-0.0039,-0.0044,-0.0223,0.0064,-1.5356,0.0017,0.0017,-0.0017
1396949231575,0.0004,-0.0038,-0.0005,-0.0222,0.0065,-1.5354,-0.0007,-0.0007,0.0020
1396949231674,0.0004,-0.0038,-0.0005,-0.0222,0.0065,-1.5353,-0.0007,-0.0007,0.0020
1396949231773,0.0051,-0.0020,0.0014,-0.0222,0.0064,-1.5352,-0.0007,-0.0007,0.0020
1396949231872,0.0020,-0.0059,-0.0074,-0.0220,0.0063,-1.5351,-0.0007,-0.0007,0.0008
1396949231972,-0.0015,-0.0022,-0.0015,-0.0222,0.0062,-1.5349,-0.0030,-0.0030,0.0044
1396949232071,0.0022,-0.0021,0.0005,-0.0221,0.0063,-1.5348,0.0017,0.0017,0.0007
1396949232170,-0.0006,0.0008,-0.0025,-0.0221,0.0063,-1.5347,-0.0007,-0.0007,0.0008
1396949232270,0.0003,-0.0040,-0.0015,-0.0221,0.0063,-1.5345,-0.0019,-0.0019,0.0008
1396949232369,-0.0018,-0.0032,-0.0014,-0.0219,0.0062,-1.5344,-0.0043,-0.0043,-0.0004
1396949232468,0.0001,-0.0012,-0.0005,-0.0219,0.0062,-1.5343,-0.0018,-0.0018,0.0020
1396949232568,0.0001,-0.0029,-0.0015,-0.0219,0.0064,-1.5341,-0.0018,-0.0018,0.0020
1396949232667,-0.0007,-0.0010,-0.0024,-0.0220,0.0065,-1.5339,-0.0042,-0.0042,0.0020
1396949232766,-0.0024,0.0020,0.0035,-0.0221,0.0066,-1.5338,-0.0018,-0.0018,0.0020
1396949232866,-0.0013,0.0021,0.0015,-0.0223,0.0067,-1.5336,-0.0030,-0.0030,0.0008
1396949232965,0.0017,0.0031,0.0005,-0.0225,0.0067,-1.5335,0.0006,0.0006,0.0007
1396949233065,0.0045,0.0011,-0.0025,-0.0225,0.0067,-1.5333,-0.0018,-0.0018,0.0031
1396949233164,-0.0020,-0.0015,-0.0015,-0.0226,0.0069,-1.5331,-0.0006,-0.0006,0.0019
1396949233263,0.0028,0.0014,0.0034,-0.0226,0.0070,-1.5329,-0.0017,-0.0017,0.0044
1396949233362,0.0038,0.0003,-0.0005,-0.0227,0.0068,-1.5327,0.0018,0.0018,0.0031
1396949233462,0.0016,-0.0017,-0.0044,-0.0225,0.0068,-1.5326,-0.0030,-0.0030,0.0020
1396949233561,0.0037,-0.0007,-0.0015,-0.0226,0.0068,-1.5324,-0.0005,-0.0005,0.0019
1396949233660,0.0008,0.0030,0.0034,-0.0225,0.0066,-1.5322,-0.0005,-0.0005,0.0031
1396949233759,-0.0013,-0.0035,0.0005,-0.0224,0.0068,-1.5321,-0.0005,-0.0005,0.0019
1396949233859,-0.0011,-0.0024,0.0015,-0.0226,0.0069,-1.5318,-0.0041,-0.0041,0.0007
1396949233958,0.0001,0.0002,0.0005,-0.0228,0.0067,-1.5317,-0.0041,-0.0041,-0.0005
1396949234058,0.0019,-0.0019,-0.0025,-0.0227,0.0066,-1.5316,-0.0005,-0.0005,0.0031
1396949234157,0.0010,-0.0021,-0.0035,-0.0229,0.0063,-1.5314,-0.0041,-0.0041,-0.0005
1396949234256,0.0038,-0.0028,-0.0025,-0.0228,0.0065,-1.5312,-0.0029,-0.0029,0.0007
1396949234356,0.0000,0.0010,-0.0005,-0.0227,0.0065,-1.5311,0.0007,0.0007,0.0019
1396949234455,-0.0009,-0.0010,-0.0034,-0.0228,0.0064,-1.5310,-0.0041,-0.0041,-0.0005
1396949234554,-0.0008,0.0027,-0.0035,-0.0229,0.0063,-1.5309,0.0019,0.0019,-0.0006
1396949234653,0.0019,-0.0004,-0.0025,-0.0227,0.0062,-1.5308,-0.0041,-0.0041,-0.0006
1396949234753,-0.0008,-0.0014,0.0015,-0.0228,0.0060,-1.5306,0.0008,0.0008,0.0042
1396949234852,-0.0008,-0.0004,-0.0034,-0.0229,0.0061,-1.5304,-0.0016,-0.0016,0.0018
1396949234951,0.0013,0.0014,-0.0005,-0.0230,0.0060,-1.5303,0.0007,0.0007,0.0006
1396949235051,0.0013,-0.0004,-0.0015,-0.0230,0.0062,-1.5302,0.0008,0.0008,0.0030
1396949235150,0.0004,-0.0003,-0.0054,-0.0231,0.0062,-1.5301,0.0020,0.0020,-0.0007
1396949235250,0.0033,0.0026,-0.0015,-0.0232,0.0063,-1.5300,-0.0004,-0.0004,0.0030
1396949235349,-0.0013,-0.0013,-0.0015,-0.0233,0.0061,-1.5299,-0.0040,-0.0040,0.0018
1396949235448,0.0034,-0.0022,0.0004,-0.0232,0.0062,-1.5298,0.0008,0.0008,0.0005
1396949235547,0.0024,-0.0051,-0.0025,-0.0232,0.0061,-1.5297,-0.0040,-0.0040,0.0006
1396949235646,-0.0005,-0.0024,-0.0054,-0.0232,0.0060,-1.5295,0.0008,0.0008,0.0017
1396949235746,0.0041,0.0005,-0.0035,-0.0230,0.0061,-1.5294,-0.0039,-0.0039,0.0029
1396949235845,0.0051,-0.0003,0.0004,-0.0230,0.0062,-1.5293,0.0020,0.0020,-0.0007
1396949235944,0.0002,0.0035,-0.0005,-0.0229,0.0062,-1.5292,-0.0015,-0.0015,0.0029
1396949236044,-0.0028,-0.0020,-0.0015,-0.0228,0.0063,-1.5289,-0.0015,-0.0015,0.0017
1396949236143,0.0020,-0.0011,0.0015,-0.0228,0.0063,-1.5289,-0.0027,-0.0027,0.0041
1396949236242,-0.0007,0.0007,0.0005,-0.0229,0.0062,-1.5288,-0.0027,-0.0027,0.0005
1396949236342,0.0001,-0.0015,-0.0005,-0.0228,0.0059,-1.5287,-0.0003,-0.0003,-0.0008
1396949236441,-0.0037,-0.0005,-0.0044,-0.0228,0.0060,-1.5285,-0.0015,-0.0015,0.0041
1396949236541,0.0008,-0.0005,-0.0025,-0.0226,0.0061,-1.5284,-0.0026,-0.0026,0.0028
1396949236640,0.0017,0.0024,-0.0074,-0.0227,0.0061,-1.5283,0.0009,0.0009,0.0016
1396949236739,0.0018,-0.0023,-0.0025,-0.0227,0.0061,-1.5281,-0.0027,-0.0027,0.0004
1396949236839,0.0018,-0.0013,0.0005,-0.0226,0.0061,-1.5280,0.0045,0.0045,-0.0021
1396949236937,0.0026,-0.0021,-0.0005,-0.0225,0.0063,-1.5279,0.0010,0.0010,0.0016
1396949237038,0.0017,0.0026,-0.0025,-0.0225,0.0063,-1.5278,0.0022,0.0022,0.0040
1396949237136,0.0000,0.0007,0.0024,-0.0227,0.0063,-1.5276,-0.0026,-0.0026,-0.0009
1396949237236,0.0037,0.0017,-0.0025,-0.0227,0.0063,-1.5276,-0.0014,-0.0014,-0.0021
1396949237335,0.0007,-0.0009,0.0005,-0.0225,0.0065,-1.5276,-0.0002,-0.0002,-0.0009
1396949237435,-0.0021,-0.0008,-0.0005,-0.0225,0.0067,-1.5276,0.0010,0.0010,-0.0009
1396949237534,0.0044,0.0019,-0.0045,-0.0225,0.0065,-1.5274,-0.0002,-0.0002,0.0015
1396949237633,0.0017,-0.0008,-0.0005,-0.0226,0.0066,-1.5273,-0.0037,-0.0037,0.0027
1396949237732,-0.0010,0.0008,-0.0015,-0.0227,0.0063,-1.5271,-0.0013,-0.0013,0.0027
1396949237832,0.0019,0.0008,0.0005,-0.0227,0.0063,-1.5270,-0.0013,-0.0013,0.0039
1396949237937,0.0047,-0.0039,0.0034,-0.0227,0.0064,-1.5268,-0.0001,-0.0001,0.0027
1396949238030,0.0019,-0.0020,-0.0035,-0.0227,0.0065,-1.5267,-0.0001,-0.0001,0.0015
1396949238129,0.0008,-0.0008,-0.0025,-0.0227,0.0067,-1.5267,-0.0037,-0.0037,-0.0010
1396949238228,-0.0000,0.0001,-0.0025,-0.0227,0.0066,-1.5265,0.0023,0.0023,0.0026
1396949238328,0.0478,-0.2600,-0.0019,-0.0231,0.0068,-1.5232,0.0017,0.0017,0.2953
1396949238428,0.2488,-0.0702,0.0464,-0.0615,0.0189,-1.5171,0.0130,0.0130,0.1493
1396949238527,0.0404,-0.0591,-0.1099,-0.1071,0.1047,-1.4750,1.5270,1.5270,0.7456
1396949238626,-0.0742,-0.0015,-0.2994,-0.2014,0.3105,-1.3766,3.3670,3.3670,0.6594
1396949238726,0.0968,0.1588,-0.0326,-0.4802,0.7323,-1.0732,5.1910,5.1910,1.6510
1396949238825,-0.1328,-0.0170,-0.0261,-0.9384,0.9722,-0.6598,2.5844,2.5844,-0.4865
1396949238924,-0.0743,-0.0950,-0.1165,-0.9007,1.1348,-0.6037,1.1454,1.1454,-1.4425
1396949239028,-0.0558,-0.0344,-0.1681,-0.7513,1.3126,-0.6974,0.7562,0.7562,-1.5307
1396949239124,0.0503,0.1233,-0.0280,-0.2000,1.4453,-1.1939,0.1623,0.1623,-1.3767
1396949239223,-0.0053,0.1457,-0.0787,0.8353,1.4626,-2.1919,-0.1791,-0.1791,-0.9112
1396949239321,0.0090,0.1703,-0.1114,1.0819,1.4061,-2.4052,-0.2884,-0.2884,-0.2891
1396949239421,-0.0465,0.0408,-0.0815,1.2463,1.4107,-2.5134,0.3258,0.3258,0.1571
1396949239520,0.0640,0.2814,0.0564,1.2638,1.4084,-2.4610,-0.6700,-0.6700,0.0433
1396949239620,-0.0024,0.1732,0.0159,0.7154,1.4136,-1.9033,-0.3909,-0.3909,0.8306
1396949239719,-0.0789,-0.0559,0.1675,0.1976,1.4106,-1.3335,-0.4880,-0.4880,0.5853
1396949239818,0.0315,0.0094,-0.0681,0.2222,1.3146,-1.3096,-0.5108,-0.5108,-0.1013
1396949239917,-0.2132,0.2161,-0.1036,0.0790,1.2550,-1.3495,-1.2217,-1.2217,-0.2173
1396949240016,-0.0334,-0.0335,0.3919,0.0741,1.2303,-1.5967,-1.1991,-1.1991,-0.9114
1396949240116,0.1706,-0.1635,0.1141,-0.0011,1.0657,-1.8076,-2.5970,-2.5970,-0.3256
1396949240215,0.0009,0.0503,-0.1046,-0.1177,0.9479,-1.8089,-0.3552,-0.3552,0.1582
1396949240315,-0.2781,0.0323,-0.0151,-0.2441,0.8992,-1.7328,-0.8877,-0.8877,0.4438
1396949240414,-0.4420,-0.4833,-0.0468,-0.3605,0.7412,-1.5850,0.1442,0.1442,1.3345
1396949240513,-0.4357,-0.0287,-0.4343,-0.3474,0.7241,-1.6772,-0.6279,-0.6279,-1.7551
1396949240612,-0.4284,0.4160,-1.0798,0.0623,0.8867,-2.1639,3.8764,3.8764,-5.3450
1396949240712,-0.3647,1.2380,-0.0847,1.2546,0.8856,2.3917,6.2675,6.2675,-9.4511
1396949240811,1.3404,1.8306,0.4221,1.3599,0.2780,1.7721,0.0045,0.0045,-2.5598
1396949240911,-0.5769,3.0760,-0.6735,0.8986,1.0917,2.9224,-7.3444,-7.3444,18.5958
1396949241010,-0.2841,1.1426,-0.7651,1.1341,0.7715,2.3904,5.1520,5.1520,-12.0808
1396949241109,3.7549,2.2804,-0.2379,1.3152,0.4827,2.0433,-4.9099,-4.9099,13.6194
1396949241208,-2.2314,0.6836,-3.6298,0.2200,0.8674,-2.1611,-0.5970,-0.5970,-0.8943
1396949241308,-0.1531,-0.1281,0.1332,0.1766,1.0202,-2.0743,-0.9428,-0.9428,2.2103
1396949241408,-0.4633,-0.0102,-0.0852,0.1052,0.8882,-1.7663,-1.9727,-1.9727,1.5106
1396949241506,-0.1221,-0.0745,-0.0914,0.0562,0.8538,-1.6700,-0.0393,-0.0393,0.4271
1396949241606,-0.0006,-0.0059,-0.0288,0.0192,0.8672,-1.6512,0.0219,0.0219,-0.0095
1396949241706,0.0140,0.0244,0.0100,0.0051,0.8613,-1.6381,-0.1304,-0.1304,0.1749
1396949241804,0.0553,0.0320,0.0820,0.0351,0.8376,-1.6304,-0.1866,-0.1866,0.1179
1396949241904,-0.0287,0.0047,-0.0365,0.0378,0.8161,-1.6183,-0.0041,-0.0041,0.0688
1396949242003,-0.1388,-0.0722,-0.0826,0.0511,0.7597,-1.5911,-1.6177,-1.6177,0.3509
1396949242102,-0.5607,0.2875,-1.2618,0.0843,0.8158,-1.7331,6.3364,6.3364,-3.3155
1396949242202,-0.3166,1.3448,-0.2257,1.3573,1.0386,2.5593,6.9307,6.9307,-9.6916
1396949242301,3.6765,1.5613,0.4044,1.4517,0.3148,2.0052,-2.3974,-2.3974,1.5342
1396949242401,-5.7636,1.7050,-2.1242,0.4027,1.1188,-2.3926,-8.2075,-8.2075,2.6528
1396949242500,0.8143,1.5266,-0.0574,1.4422,0.6984,2.2805,6.2575,6.2575,-7.9515
1396949242599,-0.2586,2.9218,0.2380,0.6781,1.2522,-2.8767,-8.5784,-8.5784,15.4718
1396949242699,0.4468,0.4029,-0.0700,0.1292,1.0665,-2.1196,3.4893,3.4893,-1.7552
1396949242798,0.2897,0.4101,0.3039,-0.0293,0.9042,-1.6456,-4.7981,-4.7981,4.5218
1396949242897,-0.1699,0.0567,-0.5211,-0.0875,0.5300,-1.3159,-1.3716,-1.3716,1.0810
1396949242997,-0.1724,-0.0969,-0.4670,-0.2099,0.5046,-1.1614,1.1287,1.1287,1.1208
1396949243096,-0.0938,-0.1195,0.0062,-0.2542,0.5357,-1.1138,-0.5058,-0.5058,0.0298
1396949243195,0.0024,0.0422,0.0397,-0.2063,0.5191,-1.1160,-0.2470,-0.2470,-0.1098
1396949243294,-0.0470,0.0063,-0.0753,-0.1663,0.4805,-1.1138,-0.3541,-0.3541,0.0341
1396949243393,0.0733,0.0012,-0.0169,-0.1804,0.5114,-1.1269,0.2443,0.2443,0.0656
1396949243493,0.1355,-0.0105,-0.0908,-0.1728,0.5428,-1.1002,0.7398,0.7398,0.3395
1396949243592,0.1174,-0.0042,0.0371,-0.2109,0.5469,-1.0413,0.0087,0.0087,0.7769
1396949243691,-0.1062,0.1161,0.0024,-0.2371,0.6223,-0.9579,1.1989,1.1989,0.0772
1396949243791,0.0439,0.0265,0.0164,-0.1670,0.6574,-0.9423,-0.1089,-0.1089,-0.1512
1396949243890,0.0403,-0.0056,-0.0100,-0.1327,0.6653,-0.9533,0.2006,0.2006,-0.0217
1396949243990,-0.0089,0.0324,-0.0463,-0.0780,0.6738,-0.9253,0.1574,0.1574,0.0791
1396949244089,0.0061,0.0218,0.0292,-0.0526,0.7208,-0.8992,0.6388,0.6388,0.0555
1396949244188,0.0483,0.0287,0.1392,-0.0509,0.7176,-0.8943,-1.0649,-1.0649,0.2412
1396949244287,0.0196,-0.0155,-0.0714,-0.2337,0.5525,-0.7522,-1.1942,-1.1942,1.7636
1396949244387,0.1912,0.0663,0.2495,-0.2853,0.5760,-0.7693,-0.1209,-0.1209,0.1459
1396949244486,-0.3279,0.0687,-1.1001,-0.4829,0.6283,-0.9704,1.8343,1.8343,-3.6550
1396949244585,-0.6446,0.9409,-0.4432,-0.4299,1.3397,-1.7488,3.6900,3.6900,-9.4405
1396949244684,0.2985,1.2468,-0.1258,1.4492,0.8602,2.1415,1.1225,1.1225,-6.7856
1396949244784,2.6778,1.9819,-0.0017,1.2280,1.2232,2.5977,-3.9480,-3.9480,14.9041
1396949244883,-1.6199,0.7706,-1.7331,-0.2452,1.1578,-2.2176,1.9034,1.9034,-10.6528
1396949244983,5.4146,1.3383,0.3612,1.3567,0.7798,2.1757,1.9588,1.9588,-0.2549
1396949245082,-4.7618,2.5218,-1.1609,-0.6143,0.9625,-1.3648,-7.9844,-7.9844,6.9870
1396949245181,0.4204,0.0480,-0.2162,-0.5895,1.1317,-1.4618,2.4153,2.4153,0.2055
1396949245281,0.2103,0.1250,0.5093,-0.6717,1.1497,-1.1216,-0.7869,-0.7869,1.8539
1396949245380,0.0361,0.0123,0.1227,-0.5468,0.9645,-1.0352,-1.7473,-1.7473,1.2289
1396949245479,-0.1428,0.0856,-0.2099,-0.4050,0.7931,-0.9701,-0.6372,-0.6372,0.7942
1396949245578,-0.0952,-0.0442,-0.1097,-0.3594,0.7246,-0.9094,-0.5361,-0.5361,0.3897
1396949245678,0.0146,0.0229,-0.1029,-0.3034,0.6804,-0.9130,-0.2548,-0.2548,0.0667
1396949245777,0.0619,0.0267,0.0241,-0.2538,0.6475,-0.9217,-0.4077,-0.4077,0.0962
1396949245877,0.0027,0.0052,0.0410,-0.2079,0.5893,-0.9343,-0.8219,-0.8219,0.0078
1396949245976,-0.0029,-0.0314,-0.0758,-0.1738,0.5267,-0.9496,-0.5841,-0.5841,-0.1525
1396949246075,0.0713,0.0146,-0.0754,-0.1381,0.4883,-0.9769,-0.1817,-0.1817,-0.2005
1396949246175,0.0386,-0.0028,-0.0285,-0.0889,0.4784,-1.0143,-0.0669,-0.0669,-0.5605
1396949246274,0.0266,0.0022,-0.0389,-0.0378,0.4589,-1.0329,-0.0419,-0.0419,0.2366
1396949246374,-0.0599,-0.0059,0.0371,-0.0821,0.4779,-1.0327,-0.0150,-0.0150,-0.3026
1396949246472,0.0363,-0.0051,-0.1097,-0.0625,0.4497,-1.0774,0.1187,0.1187,-0.2475
1396949246572,0.0399,0.0397,-0.0478,-0.0867,0.4665,-1.0926,0.2094,0.2094,-0.2161
1396949246671,0.0449,0.0583,0.0383,-0.1158,0.4988,-1.0856,0.2723,0.2723,0.2803
1396949246770,0.0179,0.0323,0.0360,-0.1310,0.5196,-1.0487,0.1825,0.1825,0.3036
1396949246870,0.0267,0.0048,-0.0205,-0.1230,0.5079,-1.0449,-0.0416,-0.0416,0.0451
1396949246969,0.0351,0.0066,-0.0204,-0.1278,0.5004,-1.0494,-0.1075,-0.1075,-0.0695
1396949247069,0.0089,0.0076,-0.0540,-0.1118,0.4896,-1.0638,0.0097,0.0097,-0.2236
1396949247167,0.0531,0.0266,0.0231,-0.1045,0.5041,-1.0840,0.0809,0.0809,0.0543
1396949247268,0.0293,0.0106,0.0373,-0.1068,0.5135,-1.0807,-0.0342,-0.0342,0.0513
1396949247366,0.0284,0.0275,-0.1236,-0.1042,0.5128,-1.0820,0.5884,0.5884,-0.0611
1396949247466,0.0642,0.0136,-0.1871,-0.1719,0.6186,-1.0659,1.6130,1.6130,0.0561
1396949247565,-0.0809,0.0253,0.0607,-0.2177,0.7326,-1.0144,0.5797,0.5797,-0.1783
1396949247664,-0.1398,0.0396,0.0178,-0.3287,0.7858,-1.0225,0.3091,0.3091,-0.2131
1396949247763,-0.0610,0.0034,0.0796,-0.3231,0.7573,-1.0721,-1.0206,-1.0206,-0.3640
1396949247863,0.0698,0.0950,-0.0273,-0.3116,0.6945,-1.1598,-0.8500,-0.8500,-0.2903
1396949247962,-0.0006,0.0373,0.1012,-0.2480,0.6326,-1.1676,-0.4903,-0.4903,0.5305
1396949248061,-0.0476,-0.0039,-0.2184,-0.1359,0.5906,-1.1412,0.2174,0.2174,-0.0515
1396949248161,0.0860,0.0213,-0.0538,-0.1219,0.6391,-1.1332,0.8029,0.8029,0.2991
1396949248260,0.0894,-0.0182,0.0620,-0.1631,0.7066,-1.0800,0.1217,0.1217,0.5952
1396949248359,0.0492,-0.0205,-0.0050,-0.1258,0.6646,-1.0989,-0.1551,-0.1551,-0.1934
1396949248459,0.0352,0.0227,0.0103,-0.1463,0.6891,-1.1232,0.1767,0.1767,-0.2309
1396949248558,0.0291,0.0416,-0.1205,-0.1609,0.7002,-1.1419,0.4542,0.4542,-0.2498
1396949248658,0.0442,0.0122,-0.0435,-0.1821,0.7430,-1.1580,0.5152,0.5152,-0.1076
1396949248757,0.0251,0.0279,0.1035,-0.1966,0.7648,-1.1573,-0.0540,-0.0540,-0.0596
1396949248857,0.0035,-0.0012,-0.0470,-0.2149,0.7772,-1.1677,0.1377,0.1377,-0.1124
1396949248955,-0.0207,-0.0146,0.0691,-0.2037,0.7857,-1.1892,-0.3027,-0.3027,-0.2164
1396949249055,0.0741,0.0666,0.0621,-0.1147,0.6951,-1.2090,-0.9848,-0.9848,0.1947
1396949249154,-0.0682,-0.0542,-0.1016,-0.1225,0.6590,-1.2250,-0.2051,-0.2051,-0.0983
1396949249253,0.0444,0.0664,-0.0656,-0.1203,0.6643,-1.2124,0.3849,0.3849,0.0711
1396949249353,0.0168,-0.0012,0.0832,-0.1056,0.6668,-1.1943,-0.3121,-0.3121,0.1732
1396949249453,-0.0225,-0.0178,-0.0195,-0.0685,0.6391,-1.1793,-0.1904,-0.1904,0.1431
1396949249551,0.0743,0.0159,0.0884,-0.0412,0.6163,-1.1468,-0.4678,-0.4678,0.4618
1396949249651,0.0321,0.0199,-0.1014,0.0086,0.5747,-1.0912,-0.1432,-0.1432,0.6047
1396949249750,-0.0456,0.0530,-0.0277,0.0143,0.6043,-1.0253,0.4340,0.4340,0.3933
1396949249849,0.0295,0.0074,0.1051,0.0162,0.6174,-0.9981,-0.2446,-0.2446,0.1536
1396949249949,-0.1756,0.0700,-0.7878,-0.1921,0.7178,-1.0735,3.8392,3.8392,-1.7772
1396949250050,-1.2735,0.3816,-1.0296,0.0184,1.4880,-2.1151,6.6595,6.6595,-9.6492
1396949250148,-0.1352,1.1799,0.0056,1.6458,0.6368,2.0575,0.2339,0.2339,-6.6766
1396949250247,-0.3816,3.4288,0.5620,1.1775,1.2810,2.8694,-8.1293,-8.1293,16.7721
1396949250346,-0.6325,0.6635,-1.3524,0.1354,1.1830,-2.4766,5.6365,5.6365,-9.6770
1396949250445,5.2266,2.3888,1.9211,1.5247,1.2483,2.4364,-5.8539,-5.8539,14.0810
1396949250544,0.1676,0.7209,-3.3115,-0.4390,0.7844,-1.4939,4.8427,4.8427,-4.6965
1396949250644,0.3465,-0.0323,0.6689,-0.3958,0.9795,-1.3147,-0.7064,-0.7064,0.8713
1396949250743,-0.1562,0.0787,-0.1807,-0.3662,0.8587,-1.2486,-1.1054,-1.1054,0.1085
1396949250842,-0.1359,0.0215,-0.0380,-0.3388,0.8340,-1.2185,0.3420,0.3420,0.1522
1396949250942,-0.0049,-0.0352,-0.0134,-0.2915,0.8310,-1.2069,-0.1682,-0.1682,-0.0002
1396949251041,0.0830,0.1058,0.0995,-0.2725,0.8150,-1.2154,-0.3072,-0.3072,0.0556
1396949251140,-0.1161,0.0625,0.0451,-0.2263,0.6427,-1.2316,-3.2304,-3.2304,0.5504
1396949251240,-1.8420,0.9818,-2.2290,-0.5038,0.7638,-1.3859,8.9149,8.9149,-8.6132
1396949251340,3.7284,1.2564,1.3728,1.9175,1.0074,1.8085,3.1642,3.1642,-5.1277
1396949251438,-4.2631,2.3780,-1.4364,-0.6054,1.0153,-1.4496,-10.7069,-10.7069,9.2652
1396949251539,0.9698,2.6002,-0.2490,1.4267,1.1499,2.3969,7.9212,7.9212,-10.9339
1396949251638,-0.4297,3.8440,0.4541,-0.9176,1.3718,-1.4153,-7.4549,-7.4549,17.2702
1396949251736,0.7129,0.3153,-0.3619,-0.3208,0.6306,-1.5309,-0.5240,-0.5240,0.1172
1396949251836,0.4441,-0.2355,0.4600,0.2074,0.1298,-1.2530,-7.2156,-7.2156,3.2206
1396949251935,-0.4024,0.3388,-1.7664,0.1516,0.0911,-1.0463,3.6321,3.6321,-0.6041
1396949252034,-0.6987,-0.2820,1.2775,0.2290,0.1585,-1.2353,-4.8172,-4.8172,-4.1844
1396949252133,0.6483,0.5968,-0.9222,0.0478,-0.2430,-1.4507,0.5988,0.5988,0.0886
1396949252233,-0.1506,0.0810,0.0004,0.0217,-0.1936,-1.3921,0.5530,0.5530,0.1309
1396949252332,0.0038,0.1207,0.2686,-0.1301,-0.0937,-1.4588,0.2914,0.2914,-0.6257
1396949252432,0.1714,0.1105,-0.0841,-0.0831,-0.0457,-1.4283,0.9993,0.9993,1.3195
1396949252531,0.0893,0.0137,-0.0592,0.0183,0.0359,-1.3584,0.6004,0.6004,-0.1630
1396949252631,0.2019,0.1032,0.0527,-0.0164,0.0463,-1.3806,0.6789,0.6789,-0.0162
1396949252730,-0.0336,0.2788,-0.1917,-0.1388,0.0652,-1.4267,-1.0600,-1.0600,-0.2865
1396949252829,0.0729,0.0517,-0.3701,-0.2054,-0.0066,-1.4536,0.3805,0.3805,-0.5770
1396949252928,0.2037,-0.0704,0.0873,-0.2747,-0.0695,-1.5517,-1.6071,-1.6071,-0.8816
1396949253027,-0.0757,-0.0694,0.0060,-0.3606,-0.0625,-1.6756,-0.1400,-0.1400,-1.1754
1396949253126,0.0308,0.0034,0.2592,-0.3089,-0.0816,-1.7694,-0.4610,-0.4610,-0.8984
1396949253226,0.0270,-0.0623,0.2086,-0.3823,-0.1140,-1.8859,-0.8937,-0.8937,-1.1697
1396949253325,0.1334,0.1765,-0.0141,-0.4765,-0.0394,-1.9551,0.8902,0.8902,-0.8183
1396949253425,0.0689,0.2887,0.0644,-0.5802,0.0093,-1.9663,0.1736,0.1736,-0.0361
1396949253524,0.0733,0.2504,0.0093,-0.6196,0.0486,-1.8633,0.8058,0.8058,0.3347
1396949253623,0.0628,0.1760,0.0201,-0.6276,0.0651,-1.7890,-0.1341,-0.1341,0.6066
1396949253723,-0.1301,0.0977,0.0571,-0.6358,0.0101,-1.7681,-0.3574,-0.3574,0.2754
1396949253823,0.0525,0.1694,0.0397,-0.6520,-0.0103,-1.7452,0.3713,0.3713,0.3141
1396949253922,-0.0166,0.0905,-0.0478,-0.6782,-0.0330,-1.7267,0.0683,0.0683,0.3213
1396949254021,0.0386,0.0600,-0.0665,-0.7139,-0.0509,-1.6915,-0.3264,-0.3264,0.3050
1396949254120,-0.0068,0.0036,0.0273,-0.7504,-0.0847,-1.6961,-0.1564,-0.1564,-0.0019
1396949254219,-0.0655,0.1274,0.0088,-0.7502,-0.0467,-1.6943,-0.0191,-0.0191,-0.1562
1396949254319,-0.0216,0.0908,-0.0155,-0.7307,-0.0608,-1.6876,0.1002,0.1002,0.0235
1396949254418,0.1027,0.0534,0.0773,-0.7589,-0.1013,-1.7128,-1.0507,-1.0507,0.0225
1396949254517,-0.0555,0.0608,-0.1087,-0.7977,-0.1546,-1.7634,0.5423,0.5423,-0.3012
1396949254616,-0.0532,0.0768,0.0064,-0.8152,-0.1189,-1.7536,0.2414,0.2414,-0.1155
1396949254716,-0.0150,0.0205,-0.0079,-0.8585,-0.0563,-1.7236,0.9879,0.9879,-0.4227
1396949254815,-0.0078,0.0712,0.0309,-0.8744,-0.0332,-1.7025,-0.2506,-0.2506,0.1413
1396949254915,0.0235,0.0083,0.0284,-0.8792,-0.0219,-1.6889,0.2243,0.2243,-0.0184
1396949255014,-0.0034,0.0401,0.0553,-0.8623,0.0258,-1.6576,0.4578,0.4578,-0.2230
1396949255113,0.0361,-0.0299,0.0819,-0.7881,0.0545,-1.6447,-0.0150,-0.0150,-0.0178
1396949255213,0.0391,0.1129,-0.0582,-0.6964,0.0534,-1.5929,0.7694,0.7694,0.9572
1396949255312,-0.1245,-0.0183,0.1115,-0.5786,0.0502,-1.4926,-0.1577,-0.1577,-0.2541
1396949255411,0.0052,0.0561,-0.2024,-0.4443,0.0512,-1.5114,0.0752,0.0752,0.1487
1396949255510,-0.1500,0.0520,0.0016,-0.5724,0.0494,-1.5064,-0.0583,-0.0583,0.0760
1396949255610,-0.5729,0.1574,0.1243,-0.5194,0.0521,-1.5174,-0.0255,-0.0255,-0.0517
1396949255709,-0.1180,-0.0091,0.1321,-0.4963,0.0536,-1.5513,-0.0020,-0.0020,-0.0008
1396949255808,0.0004,0.0584,-0.0484,-0.4920,0.0535,-1.5514,0.0004,0.0004,-0.0003
1396949255908,0.0684,0.0533,0.2912,-0.3872,0.0532,-1.5514,-0.0042,-0.0042,0.0024
1396949256007,0.1482,0.0126,2.3428,-0.0431,0.0530,-1.5593,-0.0047,-0.0047,-0.0021
1396949256107,0.0151,0.0380,-0.0040,-0.0398,0.0454,-1.5595,-0.0015,-0.0015,-0.0047
1396949256206,0.0115,0.0315,-0.0026,-0.0362,0.0389,-1.5596,-0.0039,-0.0039,0.0014
1396949256305,0.0108,0.0214,-0.0021,-0.0307,0.0270,-1.5596,0.0032,0.0032,0.0013
1396949256405,0.0026,0.0231,-0.0137,-0.0283,0.0211,-1.5596,-0.0016,-0.0016,0.0026
1396949256504,0.0082,0.0107,0.0022,-0.0271,0.0172,-1.5595,-0.0004,-0.0004,0.0013
1396949256604,0.0037,0.0056,-0.0026,-0.0264,0.0149,-1.5595,-0.0040,-0.0040,-0.0011
1396949256702,0.0039,0.0070,-0.0036,-0.0257,0.0135,-1.5594,-0.0003,-0.0003,0.0025
1396949256801,0.0027,0.0086,0.0023,-0.0253,0.0122,-1.5593,-0.0016,-0.0016,-0.0035
1396949256901,0.0026,0.0039,-0.0016,-0.0244,0.0114,-1.5593,-0.0027,-0.0027,0.0014
1396949257001,0.0013,0.0030,-0.0025,-0.0240,0.0104,-1.5592,-0.0027,-0.0027,0.0001
1396949257099,0.0008,0.0050,-0.0035,-0.0236,0.0096,-1.5590,-0.0004,-0.0004,0.0025
1396949257199,0.0068,0.0008,-0.0025,-0.0229,0.0093,-1.5589,-0.0004,-0.0004,0.0025
1396949257298,0.0016,-0.0022,-0.0025,-0.0224,0.0090,-1.5589,-0.0016,-0.0016,0.0001
1396949257397,0.0005,0.0049,-0.0005,-0.0222,0.0086,-1.5588,0.0008,0.0008,-0.0011
1396949257497,-0.0016,0.0011,-0.0015,-0.0221,0.0085,-1.5588,0.0020,0.0020,0.0001
1396949257596,0.0040,0.0035,-0.0055,-0.0221,0.0082,-1.5586,-0.0015,-0.0015,0.0001
1396949257695,-0.0015,0.0015,-0.0034,-0.0222,0.0080,-1.5585,-0.0015,-0.0015,0.0025
1396949257795,0.0031,-0.0007,0.0005,-0.0220,0.0077,-1.5585,-0.0015,-0.0015,0.0013
1396949257894,0.0031,0.0048,-0.0005,-0.0220,0.0075,-1.5583,0.0009,0.0009,-0.0011
1396949257993,-0.0018,-0.0000,-0.0015,-0.0218,0.0074,-1.5582,0.0009,0.0009,0.0001
1396949258094,0.0019,-0.0009,-0.0025,-0.0218,0.0075,-1.5581,-0.0015,-0.0015,-0.0011
1396949258192,0.0027,-0.0010,0.0024,-0.0216,0.0075,-1.5580,0.0009,0.0009,0.0001
1396949258291,-0.0004,0.0009,0.0015,-0.0213,0.0074,-1.5580,0.0009,0.0009,0.0024
1396949258391,-0.0026,-0.0010,-0.0024,-0.0211,0.0074,-1.5578,-0.0003,-0.0003,0.0024
1396949258490,-0.0006,0.0006,-0.0015,-0.0212,0.0071,-1.5577,-0.0014,-0.0014,0.0036
1396949258589,-0.0034,0.0023,-0.0034,-0.0212,0.0069,-1.5577,-0.0038,-0.0038,0.0024
1396949258688,0.0026,-0.0006,0.0034,-0.0214,0.0068,-1.5576,-0.0015,-0.0015,-0.0024
1396949258788,0.0007,0.0043,-0.0025,-0.0215,0.0071,-1.5576,-0.0014,-0.0014,0.0036
1396949258887,0.0008,-0.0004,0.0015,-0.0216,0.0071,-1.5575,-0.0014,-0.0014,0.0024
1396949258986,-0.0001,-0.0031,0.0005,-0.0216,0.0072,-1.5574,0.0010,0.0010,-0.0001
1396949259086,0.0009,0.0005,-0.0025,-0.0218,0.0071,-1.5572,0.0010,0.0010,0.0023
1396949259186,0.0002,0.0042,0.0034,-0.0219,0.0069,-1.5571,0.0022,0.0022,-0.0026
1396949259285,0.0010,0.0010,-0.0005,-0.0218,0.0066,-1.5571,-0.0002,-0.0002,0.0011
1396949259384,-0.0046,-0.0010,0.0005,-0.0219,0.0064,-1.5570,0.0022,0.0022,0.0011
1396949259483,0.0040,-0.0020,-0.0045,-0.0220,0.0064,-1.5570,0.0010,0.0010,-0.0014
1396949259582,0.0022,0.0017,-0.0015,-0.0220,0.0063,-1.5570,-0.0026,-0.0026,0.0011
1396949259682,0.0001,-0.0019,-0.0035,-0.0219,0.0065,-1.5569,-0.0026,-0.0026,0.0011
1396949259782,0.0040,-0.0038,0.0005,-0.0220,0.0065,-1.5568,-0.0037,-0.0037,0.0023
1396949259880,-0.0015,0.0029,0.0015,-0.0221,0.0065,-1.5566,0.0010,0.0010,0.0010
1396949259980,-0.0033,-0.0028,-0.0024,-0.0223,0.0065,-1.5566,-0.0013,-0.0013,0.0022
1396949260079,-0.0024,-0.0019,0.0005,-0.0222,0.0065,-1.5564,-0.0025,-0.0025,0.0022
1396949260178,0.0003,-0.0026,-0.0005,-0.0220,0.0067,-1.5563,-0.0002,-0.0002,-0.0002
1396949260278,0.0022,-0.0009,-0.0025,-0.0221,0.0066,-1.5563,0.0046,0.0046,-0.0015
1396949260377,-0.0004,0.0020,-0.0005,-0.0223,0.0066,-1.5563,-0.0001,-0.0001,0.0022
1396949260476,-0.0014,0.0028,-0.0005,-0.0222,0.0065,-1.5562,-0.0001,-0.0001,-0.0002
1396949260576,0.0025,-0.0028,-0.0015,-0.0224,0.0066,-1.5561,0.0011,0.0011,0.0010
1396949260675,-0.0003,-0.0026,-0.0025,-0.0225,0.0067,-1.5561,0.0035,0.0035,-0.0015
1396949260774,0.0017,0.0039,0.0005,-0.0225,0.0066,-1.5560,-0.0001,-0.0001,0.0021
1396949260874,-0.0000,0.0011,0.0005,-0.0227,0.0066,-1.5558,-0.0013,-0.0013,0.0022
1396949260973,0.0038,0.0030,0.0063,-0.0226,0.0066,-1.5558,-0.0013,-0.0013,0.0009
1396949261072,0.0001,0.0029,-0.0025,-0.0228,0.0065,-1.5558,0.0035,0.0035,0.0033
1396949261171,-0.0027,0.0011,0.0015,-0.0228,0.0067,-1.5558,-0.0013,-0.0013,0.0009
1396949261271,0.0008,0.0021,-0.0005,-0.0226,0.0067,-1.5557,-0.0036,-0.0036,0.0009
1396949261371,0.0007,-0.0025,0.0015,-0.0224,0.0068,-1.5557,0.0023,0.0023,0.0009
1396949261470,0.0026,-0.0017,-0.0064,-0.0226,0.0068,-1.5556,0.0011,0.0011,-0.0003
1396949261569,-0.0001,0.0003,-0.0025,-0.0226,0.0068,-1.5556,-0.0012,-0.0012,0.0021
1396949261668,0.0008,-0.0034,-0.0035,-0.0226,0.0069,-1.5556,0.0023,0.0023,-0.0003
1396949261767,0.0008,-0.0004,0.0015,-0.0225,0.0070,-1.5556,0.0011,0.0011,-0.0004
1396949261867,-0.0010,-0.0006,-0.0005,-0.0226,0.0068,-1.5556,0.0035,0.0035,-0.0028
1396949261966,-0.0000,-0.0016,-0.0044,-0.0227,0.0068,-1.5556,-0.0024,-0.0024,0.0009
1396949262065,-0.0001,0.0039,-0.0035,-0.0226,0.0066,-1.5555,-0.0036,-0.0036,0.0021
1396949262165,-0.0010,-0.0009,-0.0005,-0.0227,0.0065,-1.5555,-0.0024,-0.0024,0.0008
1396949262264,0.0048,0.0001,-0.0025,-0.0228,0.0067,-1.5554,-0.0025,-0.0025,-0.0016
1396949262363,0.0040,0.0001,-0.0015,-0.0229,0.0067,-1.5553,-0.0012,-0.0012,0.0008
1396949262463,0.0010,0.0029,-0.0005,-0.0227,0.0066,-1.5553,0.0024,0.0024,0.0008
1396949262562,-0.0001,-0.0018,-0.0015,-0.0227,0.0066,-1.5552,0.0024,0.0024,0.0008
1396949262662,0.0039,0.0010,0.0014,-0.0228,0.0066,-1.5551,-0.0012,-0.0012,0.0020
1396949262761,0.0009,-0.0017,-0.0044,-0.0227,0.0067,-1.5550,-0.0000,-0.0000,-0.0004
1396949262860,-0.0009,-0.0009,-0.0015,-0.0228,0.0066,-1.5549,0.0012,0.0012,-0.0005
1396949262959,0.0019,0.0001,-0.0005,-0.0227,0.0066,-1.5548,-0.0024,-0.0024,0.0008
1396949263059,-0.0025,0.0012,-0.0025,-0.0230,0.0067,-1.5547,-0.0024,-0.0024,-0.0005
1396949263158,-0.0006,0.0004,-0.0015,-0.0230,0.0069,-1.5547,-0.0000,-0.0000,-0.0005
1396949263257,0.0058,-0.0015,0.0004,-0.0228,0.0070,-1.5547,-0.0012,-0.0012,0.0020
1396949263357,0.0048,0.0014,-0.0006,-0.0228,0.0070,-1.5547,0.0000,0.0000,-0.0005
1396949263456,-0.0019,0.0033,-0.0025,-0.0227,0.0069,-1.5547,0.0024,0.0024,0.0007
1396949263555,0.0009,0.0022,-0.0005,-0.0226,0.0068,-1.5546,0.0000,0.0000,0.0019
1396949263655,0.0029,0.0000,-0.0015,-0.0228,0.0065,-1.5545,0.0012,0.0012,-0.0005
1396949263754,0.0003,0.0019,0.0005,-0.0229,0.0065,-1.5544,-0.0012,-0.0012,0.0007
1396949263853,0.0011,-0.0028,-0.0044,-0.0229,0.0065,-1.5545,0.0024,0.0024,0.0007
1396949263953,0.0022,0.0019,0.0034,-0.0229,0.0065,-1.5544,0.0000,0.0000,-0.0017
1396949264052,0.0031,-0.0019,0.0004,-0.0229,0.0065,-1.5544,-0.0024,-0.0024,0.0007
1396949264152,0.0030,-0.0019,-0.0005,-0.0229,0.0065,-1.5543,0.0012,0.0012,0.0019
1396949264251,0.0028,-0.0037,-0.0005,-0.0227,0.0066,-1.5543,-0.0011,-0.0011,0.0019
1396949264350,0.0017,0.0021,-0.0025,-0.0226,0.0067,-1.5542,-0.0012,-0.0012,-0.0017
1396949264450,-0.0010,-0.0009,0.0025,-0.0226,0.0066,-1.5543,0.0012,0.0012,-0.0006
1396949264549,-0.0000,0.0011,-0.0025,-0.0227,0.0066,-1.5543,-0.0012,-0.0012,0.0019
1396949264648,0.0012,-0.0024,-0.0005,-0.0229,0.0069,-1.5542,0.0000,0.0000,-0.0018
1396949264747,0.0020,0.0022,-0.0035,-0.0228,0.0068,-1.5542,-0.0012,-0.0012,-0.0006
1396949264846,-0.0008,-0.0008,-0.0025,-0.0229,0.0067,-1.5541,0.0000,0.0000,-0.0030
1396949264946,0.0041,0.0022,0.0044,-0.0229,0.0068,-1.5540,0.0024,0.0024,0.0006
1396949265045,0.0019,0.0022,-0.0015,-0.0228,0.0068,-1.5541,0.0001,0.0001,0.0031
1396949265144,0.0020,0.0012,0.0024,-0.0228,0.0068,-1.5541,-0.0036,-0.0036,-0.0018
1396949265244,-0.0025,-0.0006,-0.0005,-0.0230,0.0068,-1.5541,-0.0036,-0.0036,-0.0018
1396949265343,0.0050,0.0001,-0.0025,-0.0230,0.0066,-1.5540,0.0001,0.0001,-0.0006
1396949265442,0.0010,-0.0038,-0.0015,-0.0228,0.0065,-1.5540,-0.0011,-0.0011,0.0006
1396949265542,0.0067,-0.0011,-0.0045,-0.0229,0.0065,-1.5540,0.0025,0.0025,0.0018
1396949265641,0.0019,-0.0018,-0.0044,-0.0228,0.0066,-1.5539,-0.0011,-0.0011,0.0006
1396949265740,-0.0009,0.0021,-0.0044,-0.0228,0.0067,-1.5539,0.0025,0.0025,0.0042
1396949265839,0.0039,0.0002,-0.0005,-0.0228,0.0067,-1.5539,-0.0047,-0.0047,0.0006
1396949265939,-0.0007,0.0002,-0.0025,-0.0230,0.0067,-1.5540,0.0001,0.0001,0.0006
1396949266038,0.0003,0.0019,0.0005,-0.0230,0.0065,-1.5540,0.0001,0.0001,-0.0007
1396949266138,0.0068,-0.0001,0.0014,-0.0228,0.0065,-1.5540,-0.0023,-0.0023,0.0030
1396949266238,0.0001,0.0011,0.0005,-0.0228,0.0066,-1.5539,-0.0035,-0.0035,0.0018
1396949266337,0.0018,0.0020,-0.0035,-0.0227,0.0066,-1.5539,0.0013,0.0013,0.0017
1396949266435,-0.0000,0.0002,-0.0044,-0.0227,0.0067,-1.5539,-0.0011,-0.0011,-0.0006
1396949266535,0.0047,0.0001,0.0004,-0.0227,0.0066,-1.5539,0.0001,0.0001,-0.0019
1396949266634,0.0019,-0.0009,-0.0005,-0.0227,0.0066,-1.5540,-0.0023,-0.0023,-0.0019
1396949266734,0.0010,0.0008,-0.0035,-0.0228,0.0064,-1.5540,-0.0011,-0.0011,-0.0007
1396949266833,0.0046,-0.0038,-0.0025,-0.0227,0.0066,-1.5541,0.0001,0.0001,-0.0007
1396949266932,0.0001,-0.0017,0.0015,-0.0228,0.0067,-1.5541,-0.0011,-0.0011,-0.0007
1396949267031,0.0011,0.0049,0.0004,-0.0228,0.0066,-1.5541,-0.0022,-0.0022,0.0006
1396949267131,-0.0000,0.0002,0.0015,-0.0226,0.0067,-1.5541,0.0013,0.0013,0.0005
1396949267230,0.0016,0.0000,-0.0015,-0.0224,0.0065,-1.5541,-0.0022,-0.0022,-0.0007
1396949267330,0.0061,-0.0028,-0.0025,-0.0222,0.0066,-1.5540,-0.0010,-0.0010,-0.0007
1396949267429,0.0026,0.0019,-0.0005,-0.0225,0.0065,-1.5541,-0.0010,-0.0010,0.0005
1396949267528,0.0044,-0.0029,0.0024,-0.0224,0.0065,-1.5541,0.0013,0.0013,-0.0020
1396949267628,0.0025,0.0001,-0.0025,-0.0224,0.0066,-1.5541,0.0026,0.0026,0.0017
1396949267726,0.0024,-0.0018,-0.0005,-0.0222,0.0067,-1.5540,0.0038,0.0038,0.0005
1396949267826,0.0032,-0.0008,-0.0015,-0.0222,0.0067,-1.5540,0.0014,0.0014,0.0017
1396949267925,0.0015,0.0021,-0.0015,-0.0223,0.0067,-1.5539,0.0014,0.0014,0.0029
1396949268025,-0.0004,-0.0017,-0.0005,-0.0223,0.0067,-1.5539,0.0002,0.0002,0.0005
1396949268124,0.0006,-0.0016,-0.0035,-0.0224,0.0068,-1.5539,0.0014,0.0014,-0.0008
1396949268223,0.0006,0.0049,-0.0005,-0.0224,0.0066,-1.5540,0.0002,0.0002,-0.0007
1396949268322,0.0015,-0.0027,-0.0035,-0.0224,0.0067,-1.5539,0.0014,0.0014,0.0029
1396949268422,-0.0021,-0.0017,-0.0015,-0.0225,0.0067,-1.5539,0.0002,0.0002,0.0005
1396949268521,0.0018,0.0004,-0.0035,-0.0226,0.0069,-1.5539,0.0038,0.0038,0.0004
1396949268621,-0.0031,0.0006,-0.0054,-0.0225,0.0071,-1.5539,0.0014,0.0014,0.0017
1396949268720,-0.0012,-0.0004,-0.0005,-0.0225,0.0070,-1.5538,0.0014,0.0014,-0.0020
1396949268819,0.0023,-0.0031,-0.0044,-0.0223,0.0072,-1.5538,0.0002,0.0002,-0.0008
1396949268919,0.0015,0.0023,-0.0054,-0.0224,0.0070,-1.5539,-0.0022,-0.0022,0.0005
1396949269018,0.0024,0.0043,-0.0035,-0.0223,0.0070,-1.5538,0.0003,0.0003,0.0005
1396949269117,-0.0015,-0.0022,-0.0024,-0.0222,0.0072,-1.5538,-0.0033,-0.0033,-0.0007
1396949269216,-0.0008,-0.0031,0.0025,-0.0219,0.0071,-1.5538,-0.0046,-0.0046,-0.0032
1396949269316,-0.0034,0.0016,-0.0024,-0.0221,0.0072,-1.5538,-0.0033,-0.0033,0.0005
1396949269415,-0.0015,-0.0032,-0.0034,-0.0222,0.0070,-1.5539,0.0002,0.0002,-0.0020
1396949269514,0.0022,-0.0042,-0.0005,-0.0221,0.0071,-1.5539,0.0003,0.0003,0.0004
1396949269614,-0.0008,-0.0012,-0.0015,-0.0219,0.0072,-1.5539,0.0015,0.0015,0.0028
1396949269713,0.0037,0.0015,0.0014,-0.0217,0.0071,-1.5539,0.0003,0.0003,0.0017
1396949269812,0.0000,0.0016,0.0005,-0.0218,0.0071,-1.5539,0.0003,0.0003,0.0004
1396949269912,0.0020,-0.0012,0.0015,-0.0219,0.0072,-1.5539,-0.0010,-0.0010,-0.0008
1396949270011,0.0002,-0.0003,-0.0005,-0.0220,0.0072,-1.5539,-0.0034,-0.0034,-0.0020
1396949270110,0.0013,-0.0041,-0.0005,-0.0221,0.0071,-1.5538,0.0003,0.0003,0.0004
1396949270210,-0.0005,0.0053,-0.0005,-0.0222,0.0070,-1.5539,0.0002,0.0002,-0.0020
1396949270309,0.0060,0.0005,-0.0005,-0.0221,0.0071,-1.5538,0.0015,0.0015,0.0004
1396949270409,0.0013,0.0043,-0.0035,-0.0221,0.0070,-1.5538,0.0027,0.0027,0.0004
1396949270508,0.0003,0.0004,-0.0015,-0.0221,0.0069,-1.5538,0.0003,0.0003,-0.0008
1396949270607,0.0031,0.0012,-0.0035,-0.0220,0.0068,-1.5537,0.0003,0.0003,0.0028
1396949270707,0.0030,0.0002,0.0015,-0.0219,0.0067,-1.5537,0.0027,0.0027,0.0040
1396949270805,-0.0024,0.0001,0.0005,-0.0221,0.0065,-1.5538,0.0038,0.0038,-0.0021
1396949270905,-0.0006,-0.0055,0.0005,-0.0221,0.0067,-1.5537,-0.0021,-0.0021,0.0004
1396949271005,-0.0043,-0.0023,0.0015,-0.0222,0.0070,-1.5537,0.0015,0.0015,0.0004
1396949271103,-0.0006,0.0043,-0.0005,-0.0221,0.0070,-1.5537,-0.0009,-0.0009,0.0016
1396949271203,0.0003,-0.0004,-0.0035,-0.0221,0.0070,-1.5537,0.0003,0.0003,0.0028
1396949271302,-0.0007,0.0006,-0.0005,-0.0220,0.0071,-1.5537,0.0003,0.0003,-0.0020
1396949271402,0.0001,0.0006,-0.0015,-0.0219,0.0071,-1.5537,0.0015,0.0015,-0.0008
1396949271501,-0.0006,0.0016,-0.0035,-0.0221,0.0071,-1.5537,0.0015,0.0015,-0.0008
1396949271600,-0.0025,-0.0003,0.0025,-0.0221,0.0071,-1.5538,-0.0009,-0.0009,-0.0008
1396949271699,0.0014,-0.0004,0.0015,-0.0222,0.0071,-1.5538,-0.0021,-0.0021,0.0004
1396949271799,-0.0014,0.0005,-0.0005,-0.0223,0.0070,-1.5538,-0.0010,-0.0010,-0.0008
1396949271899,0.0014,-0.0004,-0.0025,-0.0223,0.0071,-1.5538,0.0003,0.0003,-0.0008
1396949271998,0.0052,0.0023,-0.0035,-0.0223,0.0070,-1.5537,0.0015,0.0015,0.0004
1396949272098,0.0007,-0.0014,0.0005,-0.0224,0.0070,-1.5538,-0.0046,-0.0046,-0.0009
1396949272196,-0.0038,-0.0032,-0.0024,-0.0218,0.0071,-1.5537,-0.0021,-0.0021,0.0016
1396949272296,-0.0088,0.0074,-0.0054,-0.0215,0.0072,-1.5524,-0.0004,-0.0004,0.1733
1396949272395,0.0309,0.0226,-0.0127,-0.0253,0.0076,-1.5436,0.0081,0.0081,-0.0051
1396949272494,0.0250,0.0639,-0.0072,-0.0625,0.0095,-1.5469,0.0993,0.0993,-0.0417
1396949272593,0.2117,0.0883,-0.1077,-0.3999,0.0098,-1.5463,-0.5582,-0.5582,0.1746
1396949272693,-0.1008,-0.0272,0.5623,-0.3023,0.0102,-1.5412,0.2211,0.2211,0.1207
1396949272792,0.0334,-0.0003,0.0282,-0.3530,0.0096,-1.5463,-0.0006,-0.0006,-0.0011
1396949272891,0.0376,-0.1863,-0.0647,-0.4049,0.0083,-1.5461,0.0001,0.0001,0.0002
1396949272991,-0.3977,0.1570,-0.0359,-0.2062,0.1534,-1.5625,3.6086,3.6086,-1.5951
1396949273090,0.1560,-0.0133,-0.3242,-0.1847,0.4163,-1.7271,2.0730,2.0730,-2.4255
1396949273189,-0.2006,-0.0150,-0.3348,-0.2967,0.8184,-1.6728,3.9546,3.9546,-0.3538
1396949273288,0.0046,-0.0344,-0.2454,-0.2751,1.0955,-1.6789,2.0354,2.0354,-0.9109
1396949273388,0.0321,0.0582,-0.2094,0.0172,1.1995,-1.8187,0.3617,0.3617,-0.6225
1396949273487,0.0948,0.1996,-0.2250,0.3525,1.2645,-1.9924,0.7068,0.7068,-0.2850
1396949273587,-0.0036,0.2293,-0.0410,0.8143,1.2211,-2.1706,-0.4938,-0.4938,-1.0423
1396949273687,0.0411,0.2367,0.0676,0.8999,1.1388,-2.0572,-0.6992,-0.6992,0.2646
1396949273786,-0.0467,0.0478,0.0332,0.8100,1.0977,-1.9099,-0.4955,-0.4955,-0.0900
1396949273884,-0.0148,-0.0077,-0.0059,0.7719,1.0427,-1.7936,-0.3298,-0.3298,0.0648
1396949273984,-0.0149,-0.0313,0.0662,0.4828,1.0171,-1.6464,-0.8411,-0.8411,0.5117
1396949274084,-0.3500,0.0888,0.3567,0.3012,0.8848,-1.4449,-2.0862,-2.0862,0.6913
1396949274182,0.1736,0.0303,0.0959,0.2040,0.8513,-1.3525,1.4163,1.4163,0.7955
1396949274282,0.0669,0.0038,-0.1046,0.1386,0.9781,-1.3357,0.6131,0.6131,0.1138
1396949274381,-0.1236,0.0213,0.0005,0.1602,0.9719,-1.3705,0.5072,0.5072,-0.2741
1396949274480,-0.1481,-0.0699,-0.0623,0.0488,1.0426,-1.3285,1.1653,1.1653,-0.3853
1396949274579,-0.0221,0.0456,-0.0659,-0.0444,1.2171,-1.4687,2.2969,2.2969,-0.7875
1396949274679,0.0355,0.2023,0.1994,0.1067,1.4246,-1.8961,2.0634,2.0634,-1.0794
1396949274778,0.4218,0.3778,0.5916,0.7198,1.4607,-2.8162,-3.3477,-3.3477,0.9934
1396949274877,-0.7918,1.6830,-0.4703,-0.5130,0.5672,-1.4328,-10.5497,-10.5497,8.9411
1396949274977,-0.2369,0.3440,-0.4646,-0.4959,0.1380,-1.2102,-1.4570,-1.4570,2.9550
1396949275076,-0.1378,-0.0438,0.0615,-0.3942,0.0682,-1.0193,1.0634,1.0634,1.4688
1396949275176,-0.1744,-0.0409,0.0904,-0.3525,0.0949,-0.9035,0.9118,0.9118,0.4146
1396949275275,-0.0411,0.0252,0.0135,-0.3457,0.1250,-0.8450,0.5345,0.5345,0.5167
1396949275374,0.0165,0.0222,0.0510,-0.3399,0.1435,-0.8000,0.2272,0.2272,0.3807
1396949275474,0.0392,0.0055,-0.0473,-0.3279,0.1474,-0.7740,0.0515,0.0515,0.2001
1396949275573,-0.0029,0.0109,-0.0244,-0.2962,0.1516,-0.7429,0.1511,0.1511,0.3040
1396949275672,0.0042,0.0100,0.0314,-0.2899,0.1719,-0.7056,0.2866,0.2866,0.2876
1396949275771,0.0486,0.0221,-0.0588,-0.2742,0.1860,-0.6707,0.3825,0.3825,0.3527
1396949275871,0.0170,0.0057,-0.1140,-0.2627,0.2186,-0.6239,0.7354,0.7354,0.3644
1396949275970,-0.0515,-0.0306,-0.1066,-0.3116,0.3204,-0.5707,1.4983,1.4983,0.0296
1396949276069,-0.0973,0.0178,-0.1132,-0.4141,0.4851,-0.5231,1.9853,1.9853,-0.4965
1396949276169,-0.2807,0.0704,-0.4197,-0.5763,0.7194,-0.4783,3.2623,3.2623,-1.4380
1396949276269,-0.5462,0.2695,-0.5959,-1.3730,1.2910,-0.0587,5.9821,5.9821,-5.0594
1396949276368,-0.0002,0.8736,0.1056,2.5147,0.9806,2.0331,3.7113,3.7113,-5.2531
1396949276467,0.5172,1.5628,0.5231,1.9966,0.7008,2.3541,-2.8712,-2.8712,-0.5710
1396949276566,-0.2603,3.5089,-0.2857,0.1523,0.9041,-1.9771,-14.4923,-14.4923,14.0504
1396949276665,-0.0454,-0.0288,0.1644,-0.2020,0.5694,-1.4351,-1.0666,-1.0666,2.0953
1396949276765,0.1823,-0.0051,0.1410,-0.1626,0.4603,-1.3650,0.5565,0.5565,0.0626
1396949276864,-0.0537,0.0097,-0.0854,-0.1565,0.4046,-1.3059,-0.0235,-0.0235,0.4497
1396949276963,-0.0119,0.0141,-0.0881,-0.1516,0.3730,-1.2605,-0.3859,-0.3859,0.5740
1396949277062,0.0785,0.0095,0.0098,-0.1420,0.3476,-1.2392,-0.2724,-0.2724,0.3046
1396949277162,0.0434,0.0383,-0.1033,-0.1246,0.3041,-1.2156,-0.2885,-0.2885,0.2730
1396949277261,-0.0078,0.0158,-0.0654,-0.1301,0.2849,-1.1863,-0.2568,-0.2568,0.3392
1396949277361,0.0090,0.0083,-0.0234,-0.1397,0.2741,-1.1601,-0.0330,-0.0330,0.2717
1396949277460,0.0128,0.0037,-0.0321,-0.1495,0.2683,-1.1330,0.0489,0.0489,0.2715
1396949277559,0.0454,0.0374,-0.1373,-0.1583,0.2653,-1.1055,0.2901,0.2901,0.3278
1396949277659,0.0214,0.0967,-0.3198,-0.2329,0.3398,-1.0289,1.9852,1.9852,0.8512
1396949277758,-0.1456,0.0932,-0.2392,-0.5639,0.6367,-0.8078,4.3594,4.3594,0.2176
1396949277857,-0.2515,0.1629,-0.1479,-1.0589,1.0183,-0.4002,4.8518,4.8518,-2.2551
1396949277956,-0.0149,0.4376,0.0674,-2.6077,1.2846,1.0641,4.4483,4.4483,-4.2691
1396949278056,0.0213,0.4632,0.5290,2.5721,1.0065,2.0206,-0.4231,-0.4231,-3.3048
1396949278156,0.0863,0.5858,0.5541,1.7709,1.0019,2.8058,-5.3646,-5.3646,-0.7884
1396949278255,0.4972,1.6513,0.1665,0.6380,0.5579,-2.2999,-11.9169,-11.9169,0.7413
1396949278355,-0.4675,0.5118,-0.7080,0.2174,0.1837,-1.6018,-0.6605,-0.6605,4.3767
1396949278453,-0.1712,0.1328,-0.4135,0.1640,0.1255,-1.1650,-0.8022,-0.8022,3.4213
1396949278552,-0.0972,0.0632,-0.0898,-0.0093,0.2724,-0.8912,1.2962,1.2962,2.3412
1396949278652,-0.0451,-0.0169,0.0408,-0.1668,0.4032,-0.7638,1.1914,1.1914,0.5289
1396949278751,0.0087,0.0127,0.0373,-0.2065,0.4505,-0.7303,0.5312,0.5312,0.0674
1396949278850,0.0267,0.0160,0.0383,-0.2300,0.4786,-0.7131,0.0793,0.0793,0.1954
1396949278950,0.0161,0.0251,0.0008,-0.2897,0.5273,-0.6852,0.5600,0.5600,0.0772
1396949279049,-0.0014,0.1177,-0.3834,-0.6026,0.7471,-0.5873,4.4279,4.4279,-0.8156
1396949279149,-0.0276,0.0535,0.2774,-1.0639,1.0351,-0.3118,-0.2297,-0.2297,-1.0739
1396949279248,0.1747,0.0733,-0.1303,-0.9608,1.1191,-0.3558,1.1440,1.1440,-0.2817
1396949279347,0.0842,0.0147,-0.0239,-0.9443,1.1754,-0.3387,0.2988,0.2988,-0.2969
1396949279447,0.0515,0.0193,0.0054,-0.9232,1.1895,-0.3526,0.1163,0.1163,-0.1190
1396949279546,0.0200,-0.0084,0.0454,-0.9273,1.2009,-0.3485,-0.0981,-0.0981,-0.1115
1396949279644,-0.0079,-0.0266,0.1115,-0.8762,1.2104,-0.4023,-0.5492,-0.5492,-0.2779
1396949279745,-0.0029,0.0008,-0.0094,-0.7199,1.2096,-0.5739,-0.4927,-0.4927,-0.5419
1396949279844,0.0232,0.0132,-0.0992,-0.5712,1.2152,-0.7490,-0.1868,-0.1868,-0.4703
1396949279943,-0.0057,0.0251,0.0006,-0.4703,1.2332,-0.8700,0.0384,0.0384,-0.4695
1396949280042,-0.0329,0.0363,0.0182,-0.3278,1.2360,-1.0335,-0.3397,-0.3397,-0.6091
1396949280141,0.0541,0.0521,-0.0158,-0.1572,1.1987,-1.2266,-0.6224,-0.6224,-0.4121
1396949280241,0.1011,0.0488,-0.0342,-0.0683,1.1578,-1.2826,-0.4475,-0.4475,-0.1940
1396949280340,0.0807,0.0343,-0.0403,-0.0460,1.1250,-1.3101,-0.2157,-0.2157,-0.0032
1396949280439,0.0165,0.0058,-0.0047,-0.0531,1.1123,-1.3211,-0.0410,-0.0410,0.0059
1396949280539,-0.0100,0.0005,-0.0254,-0.0688,1.0755,-1.3322,-0.4860,-0.4860,-0.1728
1396949280638,0.0075,0.0316,-0.0421,-0.0900,1.0482,-1.3543,-0.2370,-0.2370,-0.0750
1396949280737,-0.0014,0.0213,-0.0238,-0.1167,1.0347,-1.3716,-0.1550,-0.1550,-0.1241
1396949280836,0.0008,0.0107,-0.0470,-0.1124,1.0218,-1.4154,-0.0854,-0.0854,-0.2452
1396949280936,-0.0239,0.0050,0.0069,-0.0979,1.0104,-1.4668,-0.1504,-0.1504,-0.3276
1396949281036,0.0206,0.0424,0.0485,-0.0366,0.9812,-1.5530,-0.4890,-0.4890,-0.5203
1396949281135,0.0600,0.0491,0.0397,0.0325,0.9147,-1.6352,-0.8021,-0.8021,-0.4250
1396949281234,0.0579,0.0309,-0.0234,0.0551,0.8681,-1.6792,-0.2144,-0.2144,-0.0979
1396949281334,0.0094,0.0319,-0.0658,0.0239,0.8386,-1.6870,-0.2322,-0.2322,-0.0439
1396949281433,0.0501,0.0335,-0.0236,-0.0050,0.8187,-1.6835,-0.1428,-0.1428,0.1503
1396949281532,0.0314,0.0154,-0.0452,-0.0530,0.8193,-1.6575,0.2148,0.2148,0.2481
1396949281631,0.0605,0.0246,-0.0049,-0.1002,0.8201,-1.6269,-0.1186,-0.1186,0.3422
1396949281730,0.0545,0.0303,0.0055,-0.1480,0.8003,-1.5836,-0.2445,-0.2445,0.3896
1396949281830,-0.0191,0.0172,-0.0386,-0.1878,0.7777,-1.5411,-0.0759,-0.0759,0.2505
1396949281929,0.0230,0.0188,-0.0246,-0.2313,0.7706,-1.5022,0.0922,0.0922,0.3504
1396949282028,0.0259,0.0159,-0.0510,-0.2787,0.7623,-1.4551,0.2235,0.2235,0.4246
1396949282128,0.0224,0.0144,-0.0295,-0.3257,0.7610,-1.4060,0.1465,0.1465,0.3614
1396949282227,0.0140,0.0081,-0.0189,-0.3951,0.7791,-1.3420,0.3907,0.3907,0.3955
1396949282327,0.0298,0.0107,-0.0473,-0.4818,0.8066,-1.2630,0.6002,0.6002,0.4384
1396949282426,0.0046,-0.0049,-0.0240,-0.5632,0.8312,-1.1782,0.3865,0.3865,0.3617
1396949282525,-0.0183,-0.0180,-0.0024,-0.6220,0.8460,-1.1123,0.2449,0.2449,0.2042
1396949282625,-0.0176,-0.0150,-0.0677,-0.6526,0.8578,-1.0760,0.3355,0.3355,0.0727
1396949282724,0.0208,-0.0018,-0.0498,-0.6625,0.8685,-1.0539,0.3740,0.3740,0.0559
1396949282823,0.0238,-0.0064,0.0234,-0.6932,0.8967,-1.0186,0.2261,0.2261,0.0179
1396949282923,0.0107,-0.0115,0.0132,-0.6914,0.9020,-1.0176,-0.0715,-0.0715,-0.0777
1396949283022,0.0293,0.0113,-0.0212,-0.6768,0.9028,-1.0337,-0.0066,-0.0066,-0.0468
1396949283121,0.0033,0.0044,0.0006,-0.6683,0.9018,-1.0406,-0.0544,-0.0544,-0.0547
1396949283221,0.0114,0.0030,-0.0073,-0.6476,0.8984,-1.0572,-0.0672,-0.0672,-0.0172
1396949283320,0.0097,0.0039,-0.0116,-0.6378,0.8953,-1.0639,-0.0150,-0.0150,0.0443
1396949283420,-0.0049,-0.0020,0.0069,-0.6397,0.8947,-1.0605,-0.0135,-0.0135,-0.0177
1396949283518,-0.0062,-0.0046,-0.0046,-0.6384,0.8935,-1.0627,0.0380,0.0380,-0.0060
1396949283618,-0.0018,0.0061,-0.0005,-0.6339,0.8957,-1.0681,-0.0125,-0.0125,-0.0515
1396949283717,0.0168,0.0118,-0.0080,-0.6294,0.8975,-1.0748,0.0188,0.0188,0.0047
1396949283816,0.0150,0.0159,-0.0171,-0.6258,0.8952,-1.0810,-0.0063,-0.0063,0.0109
1396949283915,0.0022,-0.0028,0.0071,-0.6304,0.8936,-1.0777,-0.0227,-0.0227,0.0330
1396949284015,-0.0042,0.0020,-0.0142,-0.6319,0.8921,-1.0775,0.0413,0.0413,-0.0208
1396949284114,0.0123,0.0016,-0.0005,-0.6352,0.8933,-1.0767,0.0025,0.0025,0.0304
1396949284214,0.0082,0.0035,-0.0060,-0.6369,0.8916,-1.0751,-0.0202,-0.0202,0.0295
1396949284313,0.0571,0.2113,0.5010,-0.6905,0.8950,-1.0447,0.4739,0.4739,0.5941
1396949284412,0.0505,-0.0352,-0.4040,-0.7077,0.6544,-1.0069,-1.3260,-1.3260,1.0263
1396949284511,-0.1774,-0.0135,-0.0358,-0.7021,0.6348,-1.0068,0.0639,0.0639,-0.0340
1396949284611,0.0431,0.0093,0.0252,-0.7048,0.6364,-0.9903,-0.0260,-0.0260,0.1796
1396949284710,-0.0062,0.0802,0.0016,-0.6559,0.5975,-0.9949,-0.5401,-0.5401,0.1510
1396949284809,-0.0292,0.3180,0.3171,-0.4812,0.4868,-1.0602,-2.5248,-2.5248,0.0841
1396949284909,0.0022,0.1901,-0.1678,-0.1387,0.1097,-1.1793,-3.9521,-3.9521,-0.0038
1396949285008,0.0639,-0.0237,0.0320,-0.2599,-0.0827,-1.2163,-2.1339,-2.1339,-0.0522
1396949285107,-0.3053,0.0652,-0.4796,-0.3989,-0.2605,-1.3394,1.2500,1.2500,-0.7678
1396949285207,0.1300,-0.5053,-0.3298,-0.4236,-0.0098,-1.1524,2.2093,2.2093,2.3470
1396949285306,-0.1669,-0.0330,-0.1474,-0.6741,0.1174,-0.7914,3.2919,3.2919,0.0915
1396949285406,-0.2107,-0.0010,-0.1682,-0.9953,0.4353,-0.6516,3.5612,3.5612,-1.8006
1396949285505,-0.2414,0.2827,-0.2110,-1.5751,0.7525,-0.2854,4.7197,4.7197,-2.7145
1396949285604,-0.2284,0.4308,-0.1846,-2.5371,0.8219,0.4823,4.5966,4.5966,-3.6092
1396949285704,-0.3854,0.4290,0.3570,3.0154,0.5534,1.0835,2.3548,2.3548,-3.5958
1396949285803,-0.0762,0.5487,0.0326,2.6370,0.4899,1.4095,-1.9630,-1.9630,-2.4643
1396949285902,-0.1345,0.7755,-0.1347,2.2149,0.5739,1.7671,-3.5278,-3.5278,-1.0269
1396949286001,0.5195,1.1746,0.0397,1.6882,0.8680,2.2862,-6.0511,-6.0511,3.8723
1396949286101,0.0741,1.5474,-1.0670,0.4372,0.7881,-2.4098,-10.4221,-10.4221,4.2694
1396949286200,-0.1520,0.4553,-0.8353,-0.0424,0.3123,-1.6844,-0.5978,-0.5978,3.6376
1396949286300,0.1269,0.0227,-0.7006,-0.1953,0.2295,-1.2871,-0.0496,-0.0496,2.8538
1396949286399,-0.0482,-0.0340,0.1092,-0.3275,0.3241,-1.0240,1.2704,1.2704,1.3993
1396949286498,-0.1313,0.0146,0.0091,-0.3883,0.3747,-0.9146,0.5210,0.5210,0.5025
1396949286597,-0.0111,0.0146,0.0315,-0.4235,0.4126,-0.8547,0.5049,0.5049,0.2711
1396949286697,-0.0015,0.0112,-0.0266,-0.4263,0.4256,-0.8175,0.2169,0.2169,0.2435
1396949286796,0.0310,0.0144,-0.0289,-0.4266,0.4410,-0.8030,0.1605,0.1605,0.0700
1396949286896,0.0475,0.0109,-0.0232,-0.4124,0.4417,-0.7946,0.0802,0.0802,0.0815
1396949286994,0.0261,0.0111,-0.0249,-0.3999,0.4450,-0.7858,0.0997,0.0997,0.1439
1396949287094,0.0166,0.0161,-0.0313,-0.3858,0.4411,-0.7737,0.1735,0.1735,0.1394
1396949287193,0.0195,0.0035,-0.0419,-0.3928,0.4470,-0.7527,0.1894,0.1894,0.1696
1396949287293,0.0320,0.0111,-0.0501,-0.4110,0.4565,-0.7215,0.4240,0.4240,0.3041
1396949287393,0.0475,0.1069,-0.4520,-0.6565,0.5745,-0.5921,3.8304,3.8304,0.1577
1396949287491,-0.6336,0.2696,-1.0071,-1.7181,1.0040,0.0775,6.5981,6.5981,-4.6519
1396949287591,-0.2067,0.6361,0.0161,2.6630,0.8527,1.4194,1.8593,1.8593,-6.6391
1396949287690,0.1406,0.9047,0.2633,2.0937,0.5274,1.9448,-2.7306,-2.7306,-3.1776
1396949287789,0.6344,0.9202,0.0045,1.7077,0.6667,2.2766,-3.3778,-3.3778,4.1809
1396949287888,-0.0488,1.4220,0.4889,0.6818,0.9230,-2.6576,-10.9853,-10.9853,5.2697
1396949287988,0.6645,1.2587,-1.3650,0.0082,0.2316,-1.6547,-2.5420,-2.5420,7.4335
1396949288087,-0.6070,0.3486,-0.5262,-0.1683,0.1586,-1.0567,-0.3085,-0.3085,4.1132
1396949288186,-0.3064,-0.0906,-0.3493,-0.2026,0.1675,-0.8066,1.2652,1.2652,1.1776
1396949288286,-0.2031,-0.0877,-0.0078,-0.2400,0.2225,-0.7433,0.5040,0.5040,0.0027
1396949288385,0.0031,0.0121,0.0153,-0.2741,0.2656,-0.7357,0.3757,0.3757,0.0648
1396949288485,0.0363,0.0268,0.0459,-0.2946,0.3067,-0.7345,0.2166,0.2166,-0.0307
1396949288584,0.0378,0.0109,0.0126,-0.2881,0.3121,-0.7337,0.0197,0.0197,-0.0181
1396949288683,0.0786,0.0321,0.0202,-0.2808,0.3010,-0.7235,-0.2392,-0.2392,0.3990
1396949288782,0.0046,0.0193,0.0101,-0.3354,0.3091,-0.6489,0.4103,0.4103,0.6137
1396949288882,0.0678,0.0494,-0.0778,-0.3567,0.3185,-0.6012,0.5265,0.5265,0.2446
1396949288981,0.0704,0.0579,-0.0119,-0.2956,0.3663,-0.5490,0.5145,0.5145,0.6291
1396949289080,0.1539,0.0044,-0.0541,-0.2256,0.3717,-0.4413,0.3846,0.3846,1.3942
1396949289179,-0.1253,-0.0505,0.0467,-0.2410,0.3990,-0.2862,0.2632,0.2632,0.1618
1396949289279,0.0341,0.0158,-0.0018,-0.2339,0.4019,-0.2468,0.0131,0.0131,0.3040
1396949289378,0.0053,0.0161,-0.0011,-0.1843,0.3881,-0.1935,-0.1345,-0.1345,0.5481
1396949289477,-0.2498,-0.0334,0.0309,-0.1470,0.3731,-0.2140,-0.2616,-0.2616,-1.1869
1396949289577,0.0158,0.0361,0.1758,-0.0165,0.3148,-0.4441,-1.0174,-1.0174,-2.0384
1396949289676,-0.0090,-0.0980,0.0607,0.0568,0.1831,-0.5691,-1.3235,-1.3235,-0.9459
1396949289775,0.1361,0.0497,-0.3521,-0.0226,0.1681,-0.5808,0.4165,0.4165,0.0687
1396949289875,0.0406,0.0346,-0.2183,-0.0849,0.2214,-0.5746,1.1685,1.1685,0.1092
1396949289974,0.1129,0.0635,0.0178,-0.1629,0.3247,-0.5690,0.8151,0.8151,0.0253
1396949290073,0.0065,0.0423,0.0088,-0.1970,0.3927,-0.5627,0.8267,0.8267,-0.2037
1396949290173,0.0209,0.0244,0.0048,-0.2550,0.4739,-0.5636,0.6537,0.6537,-0.2391
1396949290272,0.0609,0.0595,-0.0237,-0.3314,0.5387,-0.5518,0.6453,0.6453,-0.1661
1396949290371,0.0888,0.0320,0.0282,-0.3298,0.5657,-0.5611,-0.0210,-0.0210,0.0315
1396949290471,0.0563,0.0242,-0.0500,-0.3255,0.5731,-0.5643,0.1355,0.1355,0.0766
1396949290570,0.0151,0.0302,0.0137,-0.3225,0.5740,-0.5597,0.0327,0.0327,0.0366
1396949290669,-0.0830,0.1330,-0.0645,-0.3698,0.6073,-0.5422,0.3632,0.3632,-0.0907
1396949290768,-0.4945,0.0427,-0.2160,-0.2028,0.6762,-0.5591,1.4244,1.4244,-0.9385
1396949290868,-0.5275,0.0691,0.1724,0.0174,0.7808,-0.7467,0.3628,0.3628,-2.1591
1396949290967,-0.2830,0.1546,0.3584,0.1648,0.6475,-1.0818,-1.9784,-1.9784,-3.7361
1396949291066,0.3709,0.2422,0.2074,0.0629,0.3916,-1.4475,-2.3479,-2.3479,-1.8163
1396949291166,0.4688,0.1540,-0.1571,-0.1563,0.2249,-1.5785,-0.5054,-0.5054,-0.6446
1396949291265,0.3824,0.2136,-0.2807,-0.2811,0.0106,-1.6201,-2.0494,-2.0494,0.8405
1396949291364,0.1272,0.0375,-0.2047,-0.3551,-0.2057,-1.6266,-2.0824,-2.0824,0.5657
1396949291464,-0.1871,0.0020,-0.1612,-0.4229,-0.2462,-1.6372,0.4040,0.4040,-0.3209
1396949291563,-0.1321,0.0737,-0.0203,-0.5158,-0.1812,-1.6578,0.4612,0.4612,-0.4631
1396949291662,0.0223,0.1808,0.1145,-0.5955,-0.1452,-1.6760,-0.6274,-0.6274,-0.2171
1396949291763,-0.0473,0.0788,0.0177,-0.6976,-0.1290,-1.6997,0.2318,0.2318,-0.4232
1396949291861,-0.0044,0.1096,-0.0282,-0.7392,-0.0922,-1.7111,0.8172,0.8172,-0.5469
1396949291960,-0.0267,0.0881,0.0091,-0.7451,0.0130,-1.6766,1.1025,1.1025,-0.3659
1396949292060,-0.4045,0.1139,-0.3461,-0.7448,0.0605,-1.5876,0.3214,0.3214,0.3486
1396949292159,-0.1855,0.2519,0.0606,-0.6590,0.0631,-1.6473,0.6590,0.6590,0.8477
1396949292258,-0.1770,0.1323,-0.0873,-0.5413,0.0627,-1.6160,-0.0027,-0.0027,0.0001
1396949292358,-0.0098,0.0419,0.0037,-0.4380,0.0620,-1.6185,-0.0379,-0.0379,-0.0926
1396949292457,0.0222,0.0535,0.0080,-0.3723,0.0622,-1.6223,0.0361,0.0361,0.0865
1396949292556,0.0775,0.0873,-0.1313,-0.3159,0.0578,-1.6171,-0.0054,-0.0054,-0.0095
1396949292656,0.0158,0.0486,-0.0068,-0.2479,0.0529,-1.6187,-0.0080,-0.0080,-0.0160
1396949292755,-0.0016,0.0432,0.0770,-0.2276,0.0492,-1.6192,0.0003,0.0003,-0.0048
1396949292854,0.0097,0.0390,0.0166,-0.2111,0.0417,-1.6196,-0.0020,-0.0020,-0.0047
1396949292954,0.0116,0.0345,-0.0023,-0.2028,0.0383,-1.6196,0.0022,0.0022,0.0006
1396949293053,-0.0071,-0.0214,-0.0003,-0.2051,0.0334,-1.6197,-0.0047,-0.0047,-0.0194
1396949293152,0.0064,0.0680,-0.0215,-0.1850,0.0293,-1.6207,0.0049,0.0049,-0.0017
1396949293252,0.0059,0.0225,0.0261,-0.1791,0.0236,-1.6205,-0.0034,-0.0034,0.0071
1396949293351,0.0093,0.0143,-0.0093,-0.1794,0.0211,-1.6202,-0.0050,-0.0050,0.0006
1396949293450,0.0120,0.0111,-0.0134,-0.1802,0.0170,-1.6201,0.0012,0.0012,0.0043
1396949293550,-0.0038,0.0789,-0.0626,-0.1962,0.0155,-1.6201,-0.0025,-0.0025,-0.0028
1396949293649,-0.0280,0.0178,-0.0213,-0.1580,0.0160,-1.6214,-0.0066,-0.0066,-0.0252
1396949293749,0.0030,0.0164,-0.0286,-0.1294,0.0181,-1.6223,0.0005,0.0005,-0.0117
1396949293848,-0.0043,0.0403,-0.0238,-0.1038,0.0156,-1.6232,-0.0044,-0.0044,-0.0163
1396949293947,0.0135,0.0103,0.0065,-0.0815,0.0172,-1.6238,-0.0026,-0.0026,-0.0029
1396949294046,-0.0410,0.0121,0.0569,-0.0185,0.0172,-1.6282,0.0003,0.0003,0.0093
1396949294145,-0.0008,0.0075,-0.0036,-0.0220,0.0168,-1.6281,-0.0027,-0.0027,-0.0007
1396949294245,-0.0007,0.0099,-0.0065,-0.0231,0.0164,-1.6281,0.0008,0.0008,-0.0008
1396949294344,0.0022,0.0079,-0.0006,-0.0230,0.0144,-1.6281,-0.0003,-0.0003,0.0005
1396949294443,-0.0010,0.0070,0.0024,-0.0226,0.0125,-1.6281,0.0021,0.0021,0.0053
1396949294543,0.0025,0.0036,-0.0035,-0.0224,0.0111,-1.6281,-0.0027,-0.0027,0.0029
1396949294642,0.0004,0.0029,-0.0005,-0.0221,0.0103,-1.6281,-0.0004,-0.0004,0.0017
1396949294741,-0.0017,0.0015,-0.0015,-0.0220,0.0099,-1.6281,0.0033,0.0033,0.0004
1396949294841,0.0021,0.0045,-0.0035,-0.0220,0.0091,-1.6280,-0.0039,-0.0039,-0.0007
1396949294940,-0.0003,-0.0034,-0.0025,-0.0216,0.0088,-1.6281,-0.0028,-0.0028,-0.0020
1396949295039,-0.0040,0.0049,-0.0044,-0.0216,0.0085,-1.6282,-0.0015,-0.0015,-0.0020
1396949295139,0.0052,0.0007,-0.0015,-0.0214,0.0083,-1.6281,0.0009,0.0009,0.0017
1396949295238,0.0033,0.0023,-0.0015,-0.0213,0.0079,-1.6281,-0.0028,-0.0028,-0.0019
1396949295338,0.0044,-0.0008,0.0034,-0.0214,0.0077,-1.6281,-0.0015,-0.0015,0.0005
1396949295437,0.0012,0.0029,-0.0015,-0.0211,0.0076,-1.6281,-0.0051,-0.0051,-0.0007
1396949295536,0.0012,0.0028,-0.0054,-0.0211,0.0075,-1.6281,-0.0015,-0.0015,0.0005
1396949295635,0.0011,-0.0002,-0.0005,-0.0210,0.0073,-1.6281,0.0033,0.0033,0.0041
1396949295735,0.0030,0.0037,-0.0015,-0.0210,0.0074,-1.6280,0.0010,0.0010,0.0029
1396949295833,0.0003,-0.0003,0.0015,-0.0211,0.0072,-1.6278,-0.0002,-0.0002,0.0017
1396949295933,-0.0007,-0.0003,-0.0034,-0.0211,0.0071,-1.6279,-0.0038,-0.0038,-0.0019
1396949296032,-0.0009,0.0034,-0.0054,-0.0209,0.0070,-1.6280,-0.0002,-0.0002,-0.0007
1396949296132,0.0021,0.0013,0.0015,-0.0210,0.0069,-1.6280,0.0010,0.0010,0.0004
1396949296231,-0.0026,0.0005,-0.0024,-0.0211,0.0070,-1.6280,-0.0026,-0.0026,-0.0019
1396949296330,0.0023,0.0012,0.0005,-0.0212,0.0068,-1.6279,-0.0026,-0.0026,0.0005
1396949296430,0.0023,-0.0025,0.0005,-0.0212,0.0069,-1.6279,-0.0002,-0.0002,-0.0032
1396949296529,0.0043,-0.0044,-0.0015,-0.0214,0.0069,-1.6280,0.0010,0.0010,0.0017
1396949296628,-0.0023,0.0016,0.0025,-0.0213,0.0071,-1.6279,0.0011,0.0011,0.0005
1396949296728,-0.0023,0.0034,-0.0005,-0.0214,0.0070,-1.6279,0.0011,0.0011,0.0017
1396949296827,-0.0042,-0.0021,-0.0004,-0.0214,0.0072,-1.6279,0.0023,0.0023,-0.0019
1396949296927,-0.0050,-0.0020,-0.0024,-0.0215,0.0073,-1.6280,0.0011,0.0011,0.0005
1396949297026,-0.0001,-0.0011,0.0005,-0.0216,0.0072,-1.6280,-0.0013,-0.0013,-0.0019
1396949297125,0.0009,0.0045,-0.0015,-0.0217,0.0072,-1.6280,-0.0037,-0.0037,0.0017
1396949297225,-0.0018,0.0014,-0.0015,-0.0219,0.0070,-1.6281,-0.0025,-0.0025,-0.0019
1396949297324,-0.0026,0.0003,0.0035,-0.0219,0.0068,-1.6281,0.0011,0.0011,-0.0019
1396949297423,0.0009,-0.0009,-0.0015,-0.0218,0.0066,-1.6281,-0.0001,-0.0001,-0.0019
1396949297522,-0.0010,-0.0017,-0.0015,-0.0218,0.0067,-1.6280,-0.0024,-0.0024,0.0006
1396949297622,-0.0020,-0.0018,-0.0044,-0.0218,0.0066,-1.6280,-0.0000,-0.0000,0.0005
1396949297721,-0.0008,0.0002,0.0015,-0.0218,0.0067,-1.6280,-0.0000,-0.0000,-0.0007
1396949297820,0.0009,-0.0027,-0.0025,-0.0218,0.0066,-1.6278,0.0036,0.0036,0.0017
1396949297920,-0.0009,0.0010,-0.0005,-0.0218,0.0065,-1.6278,-0.0000,-0.0000,-0.0019
1396949298019,-0.0017,-0.0009,0.0005,-0.0219,0.0065,-1.6278,-0.0000,-0.0000,-0.0007
1396949298118,0.0002,-0.0017,-0.0005,-0.0220,0.0067,-1.6278,-0.0000,-0.0000,-0.0019
1396949298217,-0.0006,0.0002,-0.0005,-0.0221,0.0067,-1.6278,-0.0012,-0.0012,0.0018
1396949298317,0.0010,-0.0026,-0.0015,-0.0219,0.0068,-1.6278,-0.0012,-0.0012,-0.0019
1396949298416,0.0009,-0.0035,-0.0015,-0.0218,0.0068,-1.6278,0.0012,0.0012,0.0006
1396949298515,-0.0000,0.0002,-0.0044,-0.0218,0.0067,-1.6277,-0.0012,-0.0012,-0.0007
1396949298615,-0.0018,-0.0008,0.0005,-0.0219,0.0066,-1.6276,0.0037,0.0037,0.0006
1396949298714,0.0002,-0.0028,-0.0044,-0.0221,0.0066,-1.6276,0.0000,0.0000,-0.0007
1396949298814,0.0004,-0.0037,-0.0025,-0.0222,0.0066,-1.6276,-0.0023,-0.0023,-0.0018
1396949298913,0.0033,0.0003,-0.0005,-0.0222,0.0068,-1.6276,0.0001,0.0001,0.0030
1396949299013,0.0024,-0.0016,-0.0054,-0.0224,0.0068,-1.6276,0.0001,0.0001,0.0006
1396949299111,-0.0013,-0.0032,-0.0044,-0.0224,0.0071,-1.6275,0.0001,0.0001,0.0006
1396949299211,0.0008,0.0032,0.0024,-0.0225,0.0068,-1.6275,0.0001,0.0001,-0.0006
1396949299310,-0.0001,0.0012,-0.0035,-0.0227,0.0068,-1.6275,0.0001,0.0001,0.0006
1396949299409,0.0037,0.0032,-0.0045,-0.0227,0.0069,-1.6274,-0.0011,-0.0011,-0.0018
1396949299509,0.0008,-0.0031,-0.0025,-0.0226,0.0072,-1.6275,-0.0011,-0.0011,0.0006
1396949299608,-0.0000,0.0024,-0.0035,-0.0227,0.0070,-1.6275,0.0025,0.0025,-0.0007
1396949299708,-0.0055,0.0014,-0.0064,-0.0230,0.0069,-1.6274,0.0001,0.0001,-0.0006
1396949299807,0.0021,-0.0000,-0.0044,-0.0229,0.0065,-1.6274,-0.0011,-0.0011,0.0018
1396949299906,0.0028,-0.0012,-0.0055,-0.0228,0.0063,-1.6273,0.0025,0.0025,0.0018
1396949300005,-0.0019,0.0020,-0.0005,-0.0227,0.0065,-1.6273,0.0002,0.0002,0.0030
1396949300105,0.0026,0.0002,-0.0015,-0.0225,0.0067,-1.6273,-0.0011,-0.0011,-0.0018
1396949300204,-0.0019,0.0011,-0.0015,-0.0227,0.0067,-1.6272,-0.0023,-0.0023,0.0006
1396949300303,0.0027,0.0001,-0.0035,-0.0226,0.0066,-1.6272,-0.0011,-0.0011,0.0006
1396949300402,0.0046,0.0038,0.0014,-0.0225,0.0065,-1.6271,-0.0022,-0.0022,0.0030
1396949300502,0.0053,-0.0010,-0.0045,-0.0224,0.0065,-1.6271,0.0001,0.0001,-0.0019
1396949300601,-0.0014,-0.0009,-0.0034,-0.0223,0.0066,-1.6271,-0.0023,-0.0023,-0.0006
1396949300700,0.0012,0.0008,-0.0064,-0.0221,0.0064,-1.6270,-0.0047,-0.0047,-0.0018
1396949300800,-0.0006,-0.0028,0.0005,-0.0221,0.0065,-1.6271,0.0002,0.0002,0.0018
1396949300899,0.0032,0.0010,0.0005,-0.0221,0.0066,-1.6270,0.0002,0.0002,0.0018
1396949300998,-0.0024,0.0038,-0.0025,-0.0222,0.0065,-1.6270,0.0001,0.0001,-0.0006
1396949301098,0.0013,-0.0010,0.0005,-0.0221,0.0065,-1.6270,-0.0034,-0.0034,0.0018
1396949301198,0.0034,0.0009,0.0014,-0.0223,0.0065,-1.6269,-0.0011,-0.0011,-0.0019
1396949301297,-0.0012,0.0002,0.0005,-0.0224,0.0067,-1.6270,-0.0022,-0.0022,0.0018
1396949301397,0.0016,0.0001,-0.0035,-0.0224,0.0067,-1.6269,-0.0023,-0.0023,-0.0019
1396949301495,0.0027,-0.0009,0.0005,-0.0226,0.0066,-1.6270,0.0001,0.0001,-0.0031
1396949301595,-0.0001,0.0029,-0.0035,-0.0227,0.0066,-1.6271,0.0002,0.0002,0.0005
1396949301694,-0.0038,-0.0016,-0.0005,-0.0227,0.0068,-1.6270,0.0002,0.0002,-0.0006
1396949301793,0.0034,-0.0015,-0.0005,-0.0224,0.0069,-1.6270,0.0014,0.0014,-0.0007
1396949301892,0.0014,0.0005,0.0005,-0.0222,0.0070,-1.6269,0.0002,0.0002,0.0018
1396949301992,0.0023,0.0022,-0.0025,-0.0222,0.0069,-1.6268,0.0002,0.0002,0.0005
1396949302091,0.0059,0.0005,0.0034,-0.0220,0.0070,-1.6268,-0.0033,-0.0033,0.0030
1396949302190,0.0031,-0.0005,-0.0005,-0.0220,0.0069,-1.6268,0.0002,0.0002,-0.0007
1396949302290,0.0004,0.0022,-0.0054,-0.0222,0.0068,-1.6267,0.0026,0.0026,-0.0007
1396949302389,0.0020,0.0012,-0.0064,-0.0220,0.0068,-1.6266,0.0003,0.0003,0.0006
1396949302488,0.0010,-0.0033,-0.0044,-0.0219,0.0070,-1.6267,0.0003,0.0003,0.0018
1396949302587,-0.0016,-0.0012,-0.0015,-0.0221,0.0072,-1.6267,-0.0022,-0.0022,-0.0007
1396949302687,0.0031,-0.0005,-0.0015,-0.0221,0.0070,-1.6267,0.0003,0.0003,-0.0007
1396949302786,0.0024,0.0002,-0.0015,-0.0223,0.0067,-1.6268,0.0014,0.0014,0.0005
1396949302886,0.0013,0.0002,-0.0025,-0.0222,0.0067,-1.6268,0.0015,0.0015,0.0005
1396949302985,-0.0040,0.0032,-0.0005,-0.0224,0.0068,-1.6268,0.0003,0.0003,0.0030
1396949303084,-0.0041,-0.0006,-0.0054,-0.0225,0.0068,-1.6267,0.0003,0.0003,-0.0007
1396949303184,-0.0029,-0.0023,0.0054,-0.0226,0.0070,-1.6266,0.0015,0.0015,0.0029
1396949303283,0.0010,-0.0005,0.0015,-0.0227,0.0070,-1.6264,0.0003,0.0003,-0.0031
1396949303382,0.0000,-0.0005,-0.0025,-0.0228,0.0070,-1.6265,-0.0033,-0.0033,-0.0007
1396949303481,0.0010,-0.0044,0.0005,-0.0228,0.0069,-1.6265,0.0027,0.0027,0.0029
1396949303580,0.0019,-0.0007,0.0015,-0.0227,0.0068,-1.6264,-0.0021,-0.0021,0.0029
1396949303680,0.0055,-0.0006,-0.0015,-0.0226,0.0070,-1.6263,0.0063,0.0063,-0.0019
1396949303779,-0.0003,0.0002,-0.0005,-0.0224,0.0067,-1.6263,-0.0009,-0.0009,-0.0007
1396949303879,0.0003,0.0021,-0.0035,-0.0221,0.0068,-1.6263,-0.0021,-0.0021,-0.0019
1396949303978,-0.0014,-0.0025,0.0015,-0.0223,0.0068,-1.6263,0.0003,0.0003,-0.0007
1396949304077,0.0007,0.0003,0.0074,-0.0223,0.0068,-1.6264,-0.0009,-0.0009,0.0005
1396949304177,0.0004,0.0003,-0.0025,-0.0222,0.0068,-1.6264,-0.0020,-0.0020,0.0005
1396949304276,-0.0008,-0.0006,-0.0064,-0.0220,0.0068,-1.6264,-0.0021,-0.0021,-0.0019
1396949304376,-0.0005,0.0002,0.0005,-0.0222,0.0067,-1.6264,-0.0020,-0.0020,0.0017
1396949304475,0.0052,0.0011,0.0054,-0.0221,0.0067,-1.6264,0.0003,0.0003,-0.0019
1396949304574,0.0049,0.0003,-0.0015,-0.0220,0.0068,-1.6265,-0.0009,-0.0009,-0.0007
1396949304673,0.0004,0.0005,-0.0035,-0.0222,0.0070,-1.6264,0.0016,0.0016,0.0017
1396949304773,0.0023,0.0014,-0.0005,-0.0222,0.0070,-1.6264,0.0028,0.0028,0.0017
1396949304872,-0.0005,0.0042,-0.0015,-0.0222,0.0069,-1.6264,-0.0020,-0.0020,-0.0007
1396949304972,-0.0026,-0.0004,-0.0015,-0.0220,0.0070,-1.6264,0.0016,0.0016,-0.0019
1396949305071,-0.0016,0.0004,-0.0005,-0.0220,0.0069,-1.6265,0.0039,0.0039,-0.0007
1396949305170,0.0002,-0.0023,-0.0025,-0.0220,0.0071,-1.6265,-0.0020,-0.0020,-0.0019
1396949305269,0.0038,-0.0005,-0.0025,-0.0218,0.0070,-1.6265,0.0004,0.0004,0.0017
1396949305368,0.0027,-0.0004,-0.0005,-0.0217,0.0071,-1.6264,-0.0008,-0.0008,-0.0007
1396949305468,-0.1511,-0.0055,0.0048,-0.0219,0.0070,-1.6238,0.0016,0.0016,0.0041
1396949305567,-0.0024,-0.0059,-0.0804,-0.0311,0.0064,-1.6233,-0.0035,-0.0035,0.0151
1396949305666,0.0742,-0.0079,-0.0777,-0.1802,0.0065,-1.6189,0.0121,0.0121,0.0727
1396949305766,0.2499,0.0146,-0.5480,-0.4781,0.0069,-1.6156,0.0131,0.0131,0.0034
1396949305865,0.0901,0.2189,-0.2746,-0.6532,0.0071,-1.6151,0.0017,0.0017,0.0004
1396949305964,0.1075,-0.2325,-0.0016,-0.9058,0.0073,-1.6146,-0.0007,-0.0007,-0.0017
